// Start Time: Unknown
// Update Rate: 100.0Hz
//Filter Profile: human (46.1)
// Option Flags: AHS Disabled ICC Disabled
// Firmware Version: 4.0.2
PacketCounter	SampleTimeFine	Year	Month	Day	Second	UTC_Nano	UTC_Year	UTC_Month	UTC_Day	UTC_Hour	UTC_Minute	UTC_Second	UTC_Valid	Acc_X	Acc_Y	Acc_Z	Mat[1][1]	Mat[1][2]	Mat[1][3]	Mat[2][1]	Mat[2][2]	Mat[2][3]	Mat[3][1]	Mat[3][2]	Mat[3][3]
1	615763813													-0.005370	0.000676	-0.051764	0.016454	-0.210025	0.977558	0.995161	-0.091281	-0.036361	0.096869	0.973426	0.207506
2	615780480													-0.048722	-0.014252	-0.051338	0.016661	-0.208055	0.977975	0.995159	-0.091297	-0.036377	0.096855	0.973847	0.205527
3	615797147													-0.025473	-0.014045	-0.096972	0.016069	-0.208409	0.977910	0.995163	-0.091462	-0.035845	0.096912	0.973756	0.205931
4	615813814													0.011035	-0.029061	-0.070499	0.015651	-0.209522	0.977679	0.995153	-0.091680	-0.035578	0.097088	0.973496	0.207071
5	615830481													0.027788	-0.072922	-0.042853	0.015841	-0.209711	0.977635	0.995107	-0.092057	-0.035872	0.097521	0.973420	0.207227
6	615847148													0.024903	-0.077222	-0.070609	0.016374	-0.209152	0.977746	0.995020	-0.092751	-0.036503	0.098322	0.973475	0.206592
7	615863815													0.020493	-0.070758	-0.107937	0.016929	-0.209020	0.977765	0.994916	-0.093571	-0.037229	0.099272	0.973424	0.206374
8	615880482													0.052630	-0.018770	-0.138246	0.017532	-0.208580	0.977848	0.994813	-0.094371	-0.037966	0.100199	0.973442	0.205843
9	615897149													0.002237	-0.029737	-0.079616	0.018180	-0.208806	0.977788	0.994722	-0.094998	-0.038781	0.100986	0.973332	0.205977
10	615913816													-0.044900	0.018919	-0.049379	0.018669	-0.208788	0.977783	0.994635	-0.095641	-0.039413	0.101745	0.973273	0.205883
11	615930483													-0.031840	0.113630	-0.080961	0.019076	-0.208623	0.977810	0.994563	-0.096182	-0.039924	0.102377	0.973255	0.205654
12	615947150													-0.059728	0.147203	-0.110726	0.019526	-0.208777	0.977768	0.994520	-0.096406	-0.040446	0.102707	0.973200	0.205751
13	615963817													-0.042444	0.129894	-0.118851	0.019930	-0.209109	0.977689	0.994501	-0.096410	-0.040893	0.102810	0.973128	0.206038
14	615980484													-0.027491	0.073083	-0.124455	0.020370	-0.209303	0.977639	0.994492	-0.096313	-0.041341	0.102812	0.973096	0.206189
15	615997151													-0.055588	0.039034	-0.161316	0.020657	-0.209528	0.977584	0.994490	-0.096212	-0.041636	0.102780	0.973058	0.206386
16	616013818													-0.060398	0.004958	-0.131797	0.020703	-0.209923	0.977499	0.994496	-0.096118	-0.041705	0.102710	0.972982	0.206778
17	616030485													-0.056748	-0.004051	-0.119711	0.020662	-0.209994	0.977484	0.994514	-0.095964	-0.041638	0.102547	0.972982	0.206859
18	616047152													-0.068213	-0.046230	-0.099308	0.020524	-0.209753	0.977539	0.994535	-0.095828	-0.041443	0.102368	0.973047	0.206640
19	616063819													-0.081729	-0.054943	-0.114083	0.020381	-0.209505	0.977595	0.994550	-0.095747	-0.041254	0.102245	0.973108	0.206412
20	616080486													-0.089292	-0.037172	-0.086094	0.020387	-0.209103	0.977681	0.994556	-0.095706	-0.041208	0.102187	0.973199	0.206013
21	616097153													-0.094174	-0.014647	-0.090061	0.020526	-0.208737	0.977756	0.994552	-0.095711	-0.041312	0.102205	0.973277	0.205636
22	616113820													-0.107813	0.027403	-0.063058	0.020683	-0.208358	0.977834	0.994539	-0.095788	-0.041447	0.102300	0.973351	0.205239
23	616130487													-0.098749	0.039195	-0.048996	0.020890	-0.207819	0.977944	0.994517	-0.095935	-0.041630	0.102471	0.973451	0.204676
24	616147154													-0.116557	0.040755	-0.066083	0.021247	-0.207182	0.978072	0.994494	-0.096030	-0.041946	0.102614	0.973578	0.204001
25	616163821													-0.127722	0.040253	-0.059352	0.021600	-0.206651	0.978176	0.994481	-0.096034	-0.042249	0.102669	0.973690	0.203436
26	616180488													-0.099648	0.048695	-0.039083	0.021923	-0.206287	0.978246	0.994474	-0.095981	-0.042527	0.102665	0.973773	0.203043
27	616197155													-0.117012	0.069043	-0.064839	0.022279	-0.205764	0.978348	0.994472	-0.095882	-0.042812	0.102615	0.973893	0.202491
28	616213822													-0.111879	0.084834	-0.053175	0.022579	-0.205425	0.978412	0.994479	-0.095703	-0.043044	0.102480	0.973982	0.202130
29	616230489													-0.131167	0.073047	-0.057256	0.022906	-0.205116	0.978470	0.994494	-0.095437	-0.043288	0.102261	0.974073	0.201801
30	616247156													-0.146414	0.038718	-0.056634	0.023231	-0.204827	0.978522	0.994511	-0.095146	-0.043527	0.102018	0.974163	0.201492
31	616263823													-0.115959	0.031305	-0.083325	0.023793	-0.204573	0.978562	0.994524	-0.094795	-0.043998	0.101764	0.974250	0.201197
32	616280490													-0.113421	0.017935	-0.128375	0.024382	-0.204342	0.978596	0.994538	-0.094420	-0.044495	0.101491	0.974335	0.200924
33	616297157													-0.127471	0.019719	-0.116623	0.024896	-0.204214	0.978610	0.994551	-0.094069	-0.044932	0.101233	0.974396	0.200759
34	616313824													-0.123560	0.021004	-0.111976	0.025343	-0.204168	0.978608	0.994565	-0.093742	-0.045313	0.100988	0.974437	0.200682
35	616330491													-0.118985	0.012553	-0.114379	0.025644	-0.203977	0.978640	0.994584	-0.093431	-0.045536	0.100724	0.974507	0.200477
36	616347158													-0.151597	-0.008824	-0.127007	0.025870	-0.203747	0.978682	0.994601	-0.093170	-0.045688	0.100492	0.974580	0.200237
37	616363825													-0.138274	-0.006498	-0.140780	0.026242	-0.203546	0.978714	0.994616	-0.092870	-0.045983	0.100253	0.974651	0.200013
38	616380492													-0.107820	0.033544	-0.125690	0.026703	-0.203251	0.978763	0.994622	-0.092616	-0.046368	0.100073	0.974737	0.199685
39	616397159													-0.156355	0.033727	-0.124158	0.027055	-0.203317	0.978739	0.994622	-0.092447	-0.046699	0.099976	0.974739	0.199722
40	616413826													-0.209997	0.033714	-0.063526	0.027242	-0.203167	0.978765	0.994616	-0.092420	-0.046868	0.099980	0.974773	0.199556
41	616430493													-0.163297	0.042033	-0.042174	0.027563	-0.203277	0.978733	0.994597	-0.092450	-0.047211	0.100081	0.974747	0.199631
42	616447160													-0.158275	0.040095	-0.083835	0.028006	-0.203526	0.978669	0.994578	-0.092420	-0.047681	0.100153	0.974698	0.199834
43	616463827													-0.142792	0.003821	-0.080142	0.028428	-0.203967	0.978565	0.994565	-0.092327	-0.048137	0.100166	0.974614	0.200234
44	616480494													-0.151489	0.013504	-0.101184	0.028889	-0.204437	0.978453	0.994550	-0.092225	-0.048634	0.100180	0.974526	0.200658
45	616497161													-0.135392	0.028547	-0.127407	0.029340	-0.205004	0.978321	0.994539	-0.092080	-0.049121	0.100154	0.974420	0.201183
46	616513828													-0.152993	0.032897	-0.140709	0.029693	-0.205443	0.978219	0.994533	-0.091945	-0.049499	0.100112	0.974340	0.201589
47	616530495													-0.177548	0.042511	-0.134969	0.029883	-0.206116	0.978071	0.994533	-0.091822	-0.049736	0.100060	0.974210	0.202245
48	616547162													-0.189050	0.025438	-0.125399	0.030053	-0.206631	0.977957	0.994533	-0.091705	-0.049938	0.100002	0.974112	0.202745
49	616563829													-0.187841	-0.008308	-0.116234	0.030151	-0.207330	0.977806	0.994539	-0.091560	-0.050081	0.099911	0.973977	0.203437
50	616580496													-0.186821	-0.026154	-0.073648	0.030322	-0.207966	0.977666	0.994544	-0.091398	-0.050287	0.099815	0.973856	0.204060
51	616597163													-0.176037	-0.062960	-0.027888	0.030601	-0.208419	0.977561	0.994540	-0.091273	-0.050592	0.099769	0.973771	0.204488
52	616613830													-0.177711	-0.083391	0.030019	0.030908	-0.208734	0.977484	0.994536	-0.091144	-0.050910	0.099719	0.973716	0.204776
53	616630497													-0.166261	-0.092702	-0.005740	0.031362	-0.208877	0.977439	0.994531	-0.090944	-0.051345	0.099617	0.973704	0.204882
54	616647164													-0.152419	-0.099561	-0.052214	0.032079	-0.208898	0.977411	0.994530	-0.090591	-0.052002	0.099408	0.973733	0.204849
55	616663831													-0.178974	-0.085768	-0.130079	0.032860	-0.208747	0.977417	0.994537	-0.090120	-0.052682	0.099082	0.973809	0.204645
56	616680498													-0.187601	-0.052880	-0.156629	0.033445	-0.208239	0.977506	0.994549	-0.089712	-0.053140	0.098760	0.973955	0.204104
57	616697165													-0.171023	-0.043063	-0.156506	0.033833	-0.207517	0.977646	0.994563	-0.089401	-0.053395	0.098483	0.974138	0.203364
58	616713832													-0.190607	-0.038488	-0.137890	0.034124	-0.206733	0.977802	0.994578	-0.089138	-0.053555	0.098230	0.974329	0.202570
59	616730499													-0.183671	-0.012460	-0.115927	0.034419	-0.205760	0.977997	0.994590	-0.088913	-0.053710	0.098008	0.974555	0.201587
60	616747166													-0.204920	0.016346	-0.092497	0.034727	-0.205092	0.978126	0.994598	-0.088703	-0.053911	0.097820	0.974715	0.200904
61	616763833													-0.220475	0.047273	-0.093901	0.035095	-0.204511	0.978235	0.994601	-0.088504	-0.054185	0.097659	0.974855	0.200301
62	616780500													-0.231807	0.062096	-0.107667	0.035436	-0.203957	0.978338	0.994602	-0.088335	-0.054441	0.097525	0.974986	0.199726
63	616797167													-0.260828	0.087032	-0.118942	0.035717	-0.203425	0.978439	0.994601	-0.088214	-0.054647	0.097428	0.975108	0.199177
64	616813834													-0.261651	0.098874	-0.137156	0.035969	-0.203346	0.978446	0.994604	-0.088052	-0.054863	0.097310	0.975140	0.199081
65	616830501													-0.281050	0.081450	-0.145964	0.036188	-0.203232	0.978462	0.994608	-0.087892	-0.055041	0.097185	0.975178	0.198955
66	616847168													-0.265780	0.063970	-0.111528	0.036240	-0.203363	0.978433	0.994616	-0.087774	-0.055083	0.097083	0.975161	0.199087
67	616863835													-0.237501	0.024992	-0.051379	0.036300	-0.203672	0.978366	0.994627	-0.087619	-0.055144	0.096955	0.975110	0.199397
68	616880502													-0.220915	0.007376	-0.047311	0.036507	-0.204062	0.978277	0.994641	-0.087337	-0.055335	0.096731	0.975054	0.199780
69	616897169													-0.229363	-0.036695	-0.049553	0.036730	-0.204289	0.978221	0.994657	-0.087030	-0.055522	0.096477	0.975034	0.200001
70	616913836													-0.222341	-0.060399	-0.070205	0.037118	-0.204548	0.978153	0.994665	-0.086718	-0.055879	0.096254	0.975008	0.200237
71	616930503													-0.220332	-0.043407	-0.127446	0.037533	-0.204613	0.978123	0.994665	-0.086469	-0.056256	0.096088	0.975016	0.200276
72	616947170													-0.204888	-0.054988	-0.133235	0.037847	-0.204525	0.978129	0.994667	-0.086269	-0.056526	0.095943	0.975053	0.200169
73	616963837													-0.205475	-0.062510	-0.136788	0.038133	-0.204669	0.978088	0.994675	-0.086009	-0.056778	0.095745	0.975045	0.200299
74	616980504													-0.214121	-0.073285	-0.130501	0.038371	-0.204432	0.978128	0.994683	-0.085803	-0.056953	0.095569	0.975113	0.200053
75	616997171													-0.207242	-0.063861	-0.147050	0.038584	-0.204131	0.978183	0.994691	-0.085607	-0.057100	0.095396	0.975193	0.199744
76	617013838													-0.196944	-0.070494	-0.172750	0.038818	-0.203773	0.978248	0.994702	-0.085384	-0.057257	0.095195	0.975288	0.199379
77	617030505													-0.221034	-0.043194	-0.156514	0.038858	-0.203315	0.978342	0.994719	-0.085211	-0.057216	0.094998	0.975398	0.198930
78	617047172													-0.254429	-0.048514	-0.081696	0.038781	-0.202815	0.978449	0.994734	-0.085126	-0.057072	0.094866	0.975510	0.198446
79	617063839													-0.242534	-0.026600	-0.094511	0.038753	-0.202226	0.978572	0.994748	-0.085040	-0.056967	0.094738	0.975640	0.197868
80	617080506													-0.240860	0.000367	-0.070987	0.038678	-0.201835	0.978656	0.994763	-0.084949	-0.056834	0.094607	0.975729	0.197492
81	617097173													-0.259796	0.002126	-0.014909	0.038717	-0.201218	0.978781	0.994777	-0.084812	-0.056786	0.094439	0.975868	0.196884
82	617113840													-0.252609	0.022212	-0.009336	0.038957	-0.200771	0.978863	0.994786	-0.084608	-0.056945	0.094252	0.975978	0.196428
83	617130507													-0.239379	0.043465	-0.031412	0.039243	-0.200390	0.978930	0.994792	-0.084394	-0.057154	0.094069	0.976075	0.196035
84	617147174													-0.226131	0.069365	-0.061890	0.039616	-0.200144	0.978965	0.994796	-0.084135	-0.057457	0.093865	0.976147	0.195770
85	617163841													-0.252487	0.064238	-0.117672	0.040022	-0.199812	0.979017	0.994803	-0.083837	-0.057778	0.093623	0.976241	0.195418
86	617180508													-0.261485	0.057069	-0.131404	0.040316	-0.199497	0.979069	0.994810	-0.083600	-0.057999	0.093421	0.976326	0.195092
87	617197175													-0.279454	0.030485	-0.120040	0.040578	-0.199408	0.979076	0.994811	-0.083430	-0.058222	0.093294	0.976358	0.194988
88	617213842													-0.255274	0.015320	-0.142284	0.040843	-0.199107	0.979126	0.994806	-0.083341	-0.058444	0.093238	0.976428	0.194669
89	617230509													-0.262516	-0.004644	-0.144688	0.041048	-0.198906	0.979158	0.994796	-0.083322	-0.058630	0.093247	0.976470	0.194451
90	617247176													-0.285618	-0.018704	-0.134213	0.041110	-0.198760	0.979186	0.994789	-0.083375	-0.058689	0.093304	0.976495	0.194296
91	617263843													-0.273833	-0.005441	-0.051100	0.041146	-0.198527	0.979231	0.994782	-0.083437	-0.058715	0.093361	0.976537	0.194058
92	617280510													-0.267818	-0.024877	-0.032655	0.041308	-0.198578	0.979214	0.994774	-0.083417	-0.058880	0.093376	0.976529	0.194095
93	617297177													-0.260574	-0.038377	-0.038231	0.041433	-0.198687	0.979187	0.994771	-0.083360	-0.059007	0.093349	0.976512	0.194194
94	617313844													-0.256378	-0.033598	-0.053527	0.041642	-0.198927	0.979129	0.994767	-0.083260	-0.059223	0.093303	0.976471	0.194419
95	617330511													-0.224905	-0.009040	-0.113673	0.042011	-0.198922	0.979115	0.994756	-0.083134	-0.059572	0.093248	0.976483	0.194386
96	617347178													-0.243650	-0.003290	-0.193748	0.042310	-0.199093	0.979067	0.994748	-0.083023	-0.059871	0.093205	0.976457	0.194534
97	617363845													-0.261690	0.003405	-0.205141	0.042428	-0.199166	0.979047	0.994741	-0.083015	-0.059996	0.093225	0.976443	0.194596
98	617380512													-0.319086	0.008240	-0.185657	0.042351	-0.199119	0.979060	0.994739	-0.083082	-0.059926	0.093274	0.976447	0.194553
99	617397179													-0.280804	0.034040	-0.106195	0.042026	-0.199061	0.979086	0.994744	-0.083241	-0.059622	0.093369	0.976445	0.194516
100	617413846													-0.305523	-0.001927	-0.054588	0.041740	-0.199239	0.979062	0.994749	-0.083366	-0.059374	0.093450	0.976398	0.194713
101	617430513													-0.290924	0.000182	-0.027095	0.041633	-0.199470	0.979019	0.994747	-0.083437	-0.059302	0.093515	0.976345	0.194949
102	617447180													-0.269736	-0.017653	-0.030876	0.041650	-0.199951	0.978920	0.994736	-0.083509	-0.059380	0.093622	0.976241	0.195421
103	617463847													-0.271270	-0.031232	-0.008356	0.041788	-0.200204	0.978863	0.994715	-0.083628	-0.059569	0.093786	0.976179	0.195652
104	617480514													-0.268274	-0.045079	-0.042720	0.042014	-0.200450	0.978803	0.994693	-0.083696	-0.059836	0.093916	0.976122	0.195870
105	617497181													-0.292125	-0.042512	-0.120919	0.042340	-0.200655	0.978747	0.994670	-0.083717	-0.060192	0.094016	0.976078	0.196041
106	617513848													-0.250635	-0.029664	-0.140440	0.042585	-0.200627	0.978742	0.994649	-0.083781	-0.060451	0.094128	0.976079	0.195986
107	617530515													-0.282412	-0.014990	-0.122966	0.042784	-0.200592	0.978740	0.994623	-0.083925	-0.060678	0.094312	0.976074	0.195923
108	617547182													-0.363747	-0.021967	-0.114266	0.042955	-0.200241	0.978805	0.994597	-0.084102	-0.060853	0.094505	0.976130	0.195547
109	617563849													-0.359589	-0.031555	-0.099272	0.043085	-0.200028	0.978842	0.994570	-0.084314	-0.061006	0.094733	0.976156	0.195309
110	617580516													-0.298983	-0.068881	-0.090460	0.043295	-0.199702	0.978900	0.994544	-0.084464	-0.061219	0.094907	0.976209	0.194956
111	617597183													-0.327801	-0.135019	-0.072591	0.043479	-0.199125	0.979009	0.994530	-0.084524	-0.061361	0.094969	0.976322	0.194361
112	617613850													-0.347877	-0.197045	-0.031417	0.043631	-0.198365	0.979157	0.994525	-0.084524	-0.061439	0.094949	0.976477	0.193591
113	617630517													-0.312368	-0.190844	-0.053489	0.043872	-0.197281	0.979365	0.994516	-0.084536	-0.061579	0.094940	0.976695	0.192490
114	617647184													-0.288404	-0.156232	-0.080278	0.044191	-0.195765	0.979655	0.994501	-0.084577	-0.061761	0.094947	0.976997	0.190950
115	617663851													-0.342199	-0.104284	-0.087907	0.044481	-0.193857	0.980021	0.994482	-0.084703	-0.061892	0.095009	0.977366	0.189019
116	617680518													-0.380336	-0.024007	-0.096014	0.044843	-0.191748	0.980419	0.994451	-0.084917	-0.062093	0.095161	0.977764	0.186876
117	617697185													-0.406321	0.053549	-0.126785	0.045239	-0.189694	0.980801	0.994417	-0.085138	-0.062333	0.095328	0.978145	0.184783
118	617713852													-0.411755	0.082800	-0.116280	0.045533	-0.187664	0.981177	0.994386	-0.085396	-0.062479	0.095513	0.978514	0.182722
119	617730519													-0.390309	0.109891	-0.080330	0.045826	-0.186058	0.981470	0.994352	-0.085660	-0.062666	0.095732	0.978798	0.181081
120	617747186													-0.387457	0.115059	-0.098729	0.046158	-0.184612	0.981727	0.994311	-0.085951	-0.062913	0.095995	0.979046	0.179594
121	617763853													-0.404860	0.114912	-0.147931	0.046543	-0.183166	0.981980	0.994270	-0.086208	-0.063206	0.096231	0.979295	0.178104
122	617780520													-0.414512	0.137563	-0.165637	0.046771	-0.181751	0.982232	0.994239	-0.086468	-0.063343	0.096445	0.979535	0.176660
123	617797187													-0.444056	0.124945	-0.111711	0.046878	-0.180284	0.982497	0.994219	-0.086693	-0.063345	0.096595	0.979787	0.175178
124	617813854													-0.460660	0.103459	-0.055369	0.046861	-0.179095	0.982715	0.994216	-0.086814	-0.063231	0.096637	0.979994	0.173991
125	617830521													-0.442667	0.094563	-0.028772	0.046913	-0.177941	0.982922	0.994217	-0.086845	-0.063174	0.096603	0.980202	0.172838
126	617847188													-0.437561	0.062261	-0.026042	0.047249	-0.176892	0.983096	0.994205	-0.086813	-0.063403	0.096561	0.980394	0.171765
127	617863855													-0.431031	0.147428	-0.072572	0.047698	-0.175954	0.983242	0.994191	-0.086719	-0.063748	0.096482	0.980571	0.170795
128	617880522													-0.439973	0.182360	-0.062896	0.047866	-0.175160	0.983376	0.994207	-0.086501	-0.063801	0.096238	0.980733	0.170005
129	617897189													-0.407052	0.090347	-0.023369	0.048006	-0.174594	0.983470	0.994226	-0.086245	-0.063842	0.095965	0.980856	0.169445
130	617913856													-0.430166	-0.002869	-0.000349	0.048435	-0.173818	0.983586	0.994230	-0.085975	-0.064152	0.095714	0.981018	0.168650
131	617930523													-0.375894	-0.079939	-0.023330	0.049211	-0.172847	0.983719	0.994210	-0.085716	-0.064797	0.095521	0.981212	0.167629
132	617947190													-0.319137	-0.107533	-0.104022	0.050166	-0.171450	0.983915	0.994179	-0.085478	-0.065584	0.095347	0.981478	0.166164
133	617963857													-0.326555	-0.091618	-0.180150	0.051104	-0.169863	0.984142	0.994156	-0.085172	-0.066325	0.095087	0.981780	0.164517
134	617980524													-0.350924	0.056513	-0.206063	0.052023	-0.168049	0.984405	0.994143	-0.084787	-0.067012	0.094726	0.982126	0.162654
135	617997191													-0.435757	0.214970	-0.245643	0.052707	-0.166507	0.984631	0.994147	-0.084370	-0.067484	0.094310	0.982424	0.161085
136	618013858													-0.438646	0.323078	-0.170695	0.052990	-0.165439	0.984795	0.994165	-0.084051	-0.067614	0.093959	0.982632	0.160019
137	618030525													-0.469072	0.347448	-0.098358	0.053169	-0.165139	0.984836	0.994167	-0.083919	-0.067744	0.093834	0.982694	0.159714
138	618047192													-0.459023	0.320493	-0.125129	0.053454	-0.165092	0.984829	0.994142	-0.083980	-0.068037	0.093939	0.982696	0.159636
139	618063859													-0.436522	0.225373	-0.154376	0.053746	-0.165517	0.984741	0.994109	-0.084080	-0.068390	0.094116	0.982616	0.160023
140	618080526													-0.380969	0.155451	-0.103859	0.053914	-0.166253	0.984608	0.994089	-0.084116	-0.068636	0.094233	0.982489	0.160735
141	618097193													-0.380778	0.068478	-0.016651	0.054141	-0.167286	0.984421	0.994076	-0.084014	-0.068949	0.094240	0.982322	0.161747
142	618113860													-0.419400	0.015706	-0.041066	0.054443	-0.168418	0.984211	0.994077	-0.083706	-0.069312	0.094058	0.982155	0.162863
143	618130527													-0.431229	0.022967	-0.030350	0.054691	-0.169323	0.984042	0.994088	-0.083346	-0.069591	0.093799	0.982030	0.163764
144	618147194													-0.400270	0.073437	-0.067672	0.055156	-0.170238	0.983858	0.994085	-0.082964	-0.070084	0.093555	0.981904	0.164656
145	618163861													-0.433217	0.073313	-0.109096	0.055689	-0.171156	0.983669	0.994070	-0.082659	-0.070660	0.093403	0.981770	0.165538
146	618180528													-0.464468	0.023554	-0.135228	0.056147	-0.171986	0.983498	0.994040	-0.082564	-0.071187	0.093444	0.981633	0.166325
147	618197195													-0.443437	0.018940	-0.151807	0.056546	-0.172961	0.983304	0.994000	-0.082608	-0.071692	0.093629	0.981458	0.167252
148	618213862													-0.415969	0.060046	-0.180888	0.056968	-0.173886	0.983117	0.993957	-0.082663	-0.072217	0.093825	0.981290	0.168126
149	618230529													-0.393347	0.087545	-0.139564	0.057317	-0.174862	0.982923	0.993935	-0.082561	-0.072647	0.093854	0.981125	0.169069
150	618247196													-0.398783	0.080387	-0.127398	0.057527	-0.175703	0.982761	0.993940	-0.082276	-0.072892	0.093665	0.980999	0.169905
151	618263863													-0.399366	0.108342	-0.150579	0.057536	-0.176554	0.982608	0.993977	-0.081819	-0.072903	0.093267	0.980884	0.170783
152	618280530													-0.399355	0.131998	-0.124374	0.057339	-0.177452	0.982458	0.994031	-0.081341	-0.072706	0.092816	0.980762	0.171728
153	618297197													-0.404591	0.157559	-0.102649	0.057198	-0.178498	0.982276	0.994077	-0.080883	-0.072583	0.092406	0.980610	0.172814
154	618313864													-0.419733	0.165108	-0.128866	0.057028	-0.179740	0.982060	0.994119	-0.080486	-0.072459	0.092066	0.980416	0.174093
155	618330531													-0.427026	0.139832	-0.121773	0.056827	-0.180880	0.981862	0.994154	-0.080185	-0.072310	0.091810	0.980231	0.175265
156	618347198													-0.423261	0.061424	-0.094221	0.056679	-0.181913	0.981680	0.994179	-0.079952	-0.072216	0.091624	0.980059	0.176322
157	618363865													-0.391136	0.000795	-0.089440	0.056528	-0.183098	0.981468	0.994202	-0.079745	-0.072138	0.091475	0.979855	0.177529
158	618380532													-0.396942	-0.040630	-0.084939	0.056447	-0.184481	0.981214	0.994214	-0.079578	-0.072157	0.091395	0.979609	0.178922
159	618397199													-0.391725	-0.051986	-0.077946	0.056524	-0.185828	0.980955	0.994209	-0.079473	-0.072343	0.091402	0.979363	0.180260
160	618413866													-0.394316	-0.028496	-0.085805	0.056759	-0.187159	0.980688	0.994191	-0.079373	-0.072688	0.091445	0.979118	0.181567
161	618430533													-0.384269	-0.024547	-0.101916	0.056936	-0.188563	0.980409	0.994177	-0.079282	-0.072984	0.091491	0.978856	0.182951
162	618447200													-0.400923	-0.058114	-0.106633	0.057003	-0.189724	0.980181	0.994168	-0.079241	-0.073155	0.091550	0.978635	0.184100
163	618463867													-0.384874	-0.075036	-0.155494	0.057122	-0.190741	0.979977	0.994163	-0.079117	-0.073348	0.091523	0.978447	0.185108
164	618480534													-0.390842	-0.099907	-0.153365	0.057300	-0.191506	0.979817	0.994158	-0.078978	-0.073575	0.091474	0.978309	0.185862
165	618497201													-0.403643	-0.094602	-0.133324	0.057454	-0.192227	0.979667	0.994151	-0.078871	-0.073780	0.091450	0.978176	0.186571
166	618513868													-0.375577	-0.082923	-0.075985	0.057543	-0.192735	0.979562	0.994143	-0.078845	-0.073912	0.091480	0.978078	0.187069
167	618530535													-0.367695	-0.107583	-0.052220	0.057506	-0.193159	0.979481	0.994139	-0.078881	-0.073923	0.091542	0.977991	0.187491
168	618547202													-0.353966	-0.159497	-0.014578	0.057365	-0.193489	0.979424	0.994141	-0.078953	-0.073824	0.091613	0.977920	0.187827
169	618563869													-0.292810	-0.167204	-0.060666	0.057396	-0.193686	0.979383	0.994142	-0.078907	-0.073866	0.091587	0.977885	0.188022
170	618580536													-0.285264	-0.144170	-0.120120	0.057603	-0.193517	0.979404	0.994134	-0.078834	-0.074046	0.091539	0.977924	0.187841
171	618597203													-0.301389	-0.077717	-0.164544	0.057788	-0.192856	0.979524	0.994120	-0.078880	-0.074180	0.091571	0.978051	0.187163
172	618613870													-0.358049	-0.056599	-0.177002	0.057788	-0.191866	0.979718	0.994113	-0.079038	-0.074116	0.091656	0.978233	0.186169
173	618630537													-0.374761	-0.021334	-0.202915	0.057540	-0.190859	0.979930	0.994119	-0.079248	-0.073809	0.091744	0.978413	0.185177
174	618647204													-0.362246	-0.015025	-0.193709	0.057134	-0.189807	0.980158	0.994132	-0.079513	-0.073347	0.091857	0.978596	0.184151
175	618663871													-0.374375	-0.000667	-0.154251	0.056788	-0.188841	0.980364	0.994143	-0.079740	-0.072946	0.091950	0.978765	0.183207
176	618680538													-0.388964	0.011447	-0.086993	0.056370	-0.187890	0.980571	0.994152	-0.080050	-0.072489	0.092114	0.978923	0.182279
177	618697205													-0.364229	0.060412	-0.033840	0.055934	-0.186863	0.980792	0.994155	-0.080429	-0.072020	0.092342	0.979088	0.181272
178	618713872													-0.323223	0.107513	-0.034081	0.055576	-0.186020	0.980973	0.994160	-0.080721	-0.071630	0.092509	0.979225	0.180447
179	618730539													-0.386500	0.113887	-0.029529	0.055332	-0.185178	0.981146	0.994167	-0.080889	-0.071333	0.092574	0.979370	0.179622
180	618747206													-0.413192	0.148262	-0.071897	0.055239	-0.184447	0.981289	0.994166	-0.081025	-0.071194	0.092641	0.979497	0.178896
181	618763873													-0.375192	0.185459	-0.118237	0.055135	-0.184046	0.981370	0.994162	-0.081182	-0.071079	0.092752	0.979559	0.178495
182	618780540													-0.373724	0.175101	-0.127721	0.054903	-0.183799	0.981429	0.994151	-0.081488	-0.070875	0.093001	0.979580	0.178250
183	618797207													-0.367385	0.149592	-0.135370	0.054556	-0.183819	0.981445	0.994143	-0.081831	-0.070589	0.093289	0.979548	0.178278
184	618813874													-0.361500	0.135339	-0.168746	0.054265	-0.184070	0.981414	0.994137	-0.082097	-0.070366	0.093523	0.979479	0.178536
185	618830541													-0.374173	0.131404	-0.183514	0.054079	-0.184510	0.981342	0.994132	-0.082261	-0.070250	0.093688	0.979382	0.178978
186	618847208													-0.342351	0.129441	-0.164725	0.053824	-0.184993	0.981265	0.994133	-0.082408	-0.070066	0.093826	0.979279	0.179472
187	618863875													-0.382146	0.063580	-0.146372	0.053340	-0.185456	0.981204	0.994147	-0.082583	-0.069653	0.093948	0.979176	0.179966
188	618880542													-0.391520	-0.007406	-0.075794	0.052788	-0.185994	0.981132	0.994167	-0.082747	-0.069176	0.094052	0.979060	0.180541
189	618897209													-0.358128	-0.066901	-0.043620	0.052317	-0.186570	0.981048	0.994188	-0.082836	-0.068771	0.094096	0.978943	0.181152
190	618913876													-0.343754	-0.133819	0.003268	0.051895	-0.186767	0.981033	0.994209	-0.082906	-0.068375	0.094104	0.978900	0.181383
191	618930543													-0.311450	-0.150231	0.026109	0.051617	-0.186701	0.981060	0.994228	-0.082916	-0.068089	0.094058	0.978911	0.181344
192	618947210													-0.275624	-0.131146	-0.032664	0.051582	-0.186451	0.981109	0.994243	-0.082804	-0.068009	0.093920	0.978969	0.181107
193	618963877													-0.294285	-0.062514	-0.091445	0.051569	-0.185979	0.981200	0.994256	-0.082706	-0.067931	0.093785	0.979067	0.180645
194	618980544													-0.325147	0.026897	-0.144343	0.051490	-0.185608	0.981274	0.994274	-0.082598	-0.067796	0.093634	0.979146	0.180292
195	618997211													-0.309966	0.106581	-0.197650	0.051426	-0.185198	0.981355	0.994288	-0.082531	-0.067679	0.093526	0.979229	0.179896
196	619013878													-0.312902	0.138274	-0.226351	0.051242	-0.184940	0.981413	0.994300	-0.082557	-0.067472	0.093501	0.979276	0.179656
197	619030545													-0.357398	0.138397	-0.219001	0.050863	-0.184767	0.981465	0.994313	-0.082701	-0.067098	0.093565	0.979297	0.179510
198	619047212													-0.326889	0.084209	-0.105412	0.050280	-0.184675	0.981513	0.994325	-0.082996	-0.066552	0.093752	0.979289	0.179454
199	619063879													-0.300733	0.041695	-0.044106	0.049677	-0.184733	0.981532	0.994331	-0.083360	-0.066014	0.094016	0.979247	0.179545
200	619080546													-0.313250	0.008599	-0.048782	0.049176	-0.184825	0.981540	0.994334	-0.083664	-0.065572	0.094239	0.979204	0.179664
201	619097213													-0.329347	0.047508	-0.065331	0.048911	-0.184919	0.981536	0.994334	-0.083841	-0.065344	0.094377	0.979171	0.179771
202	619113880													-0.347193	0.068282	-0.073133	0.048711	-0.184935	0.981543	0.994338	-0.083940	-0.065162	0.094441	0.979159	0.179799
203	619130547													-0.375876	0.067897	-0.051905	0.048257	-0.185052	0.981543	0.994357	-0.084052	-0.064733	0.094480	0.979128	0.179951
204	619147214													-0.409615	0.024864	-0.037473	0.047692	-0.185233	0.981537	0.994385	-0.084129	-0.064193	0.094467	0.979087	0.180181
205	619163881													-0.396709	0.044417	-0.078581	0.047608	-0.185338	0.981521	0.994407	-0.083949	-0.064085	0.094275	0.979082	0.180305
206	619180548													-0.348828	0.056092	-0.174888	0.047887	-0.185252	0.981524	0.994420	-0.083632	-0.064301	0.093999	0.979126	0.180213
207	619197215													-0.342062	0.010244	-0.112126	0.047772	-0.185082	0.981561	0.994443	-0.083483	-0.064140	0.093815	0.979171	0.180065
208	619213882													-0.360519	-0.053962	-0.020233	0.047427	-0.184790	0.981633	0.994472	-0.083432	-0.063753	0.093680	0.979230	0.179812
209	619230549													-0.385245	-0.084358	0.043408	0.047145	-0.184318	0.981735	0.994509	-0.083268	-0.063391	0.093431	0.979333	0.179380
210	619247216													-0.345370	-0.056869	0.038430	0.047234	-0.183697	0.981847	0.994545	-0.082870	-0.063349	0.093003	0.979483	0.178781
211	619263883													-0.315782	-0.009579	-0.035356	0.047681	-0.183003	0.981955	0.994570	-0.082342	-0.063639	0.092502	0.979658	0.178083
212	619280550													-0.329578	0.049583	-0.121900	0.048149	-0.182307	0.982062	0.994586	-0.081893	-0.063966	0.092085	0.979825	0.177377
213	619297217													-0.381222	0.086107	-0.237088	0.048514	-0.181582	0.982178	0.994594	-0.081605	-0.064214	0.091811	0.979984	0.176641
214	619313884													-0.397064	0.112931	-0.332890	0.048685	-0.181038	0.982270	0.994598	-0.081480	-0.064313	0.091679	0.980095	0.176093
215	619330551													-0.384616	0.076925	-0.320595	0.048655	-0.180654	0.982343	0.994597	-0.081531	-0.064255	0.091699	0.980162	0.175711
216	619347218													-0.390071	0.076258	-0.284239	0.048256	-0.180328	0.982422	0.994614	-0.081648	-0.063842	0.091725	0.980212	0.175416
217	619363885													-0.369307	0.084662	-0.163926	0.047364	-0.179999	0.982526	0.994664	-0.081756	-0.062927	0.091654	0.980263	0.175166
218	619380552													-0.332697	0.065358	-0.012770	0.046276	-0.179556	0.982659	0.994731	-0.081808	-0.061793	0.091485	0.980340	0.174824
219	619397219													-0.311899	0.023137	0.139483	0.045641	-0.179112	0.982769	0.994779	-0.081738	-0.061096	0.091273	0.980427	0.174446
220	619413886													-0.312818	-0.038528	0.127228	0.045549	-0.178654	0.982857	0.994802	-0.081580	-0.060932	0.091067	0.980524	0.174010
221	619430553													-0.308472	-0.034750	0.089731	0.045658	-0.178381	0.982902	0.994808	-0.081466	-0.060996	0.090953	0.980583	0.173736
222	619447220													-0.283560	-0.004425	0.001356	0.046042	-0.178200	0.982916	0.994800	-0.081301	-0.061339	0.090843	0.980630	0.173530
223	619463887													-0.267505	-0.002335	-0.155993	0.046666	-0.177910	0.982940	0.994794	-0.080964	-0.061883	0.090592	0.980710	0.173206
224	619480554													-0.288391	0.001063	-0.248512	0.047024	-0.177229	0.983046	0.994806	-0.080631	-0.062123	0.090274	0.980861	0.172517
225	619497221													-0.258077	0.020199	-0.251255	0.047043	-0.176476	0.983180	0.994839	-0.080313	-0.062017	0.089906	0.981023	0.171787
226	619513888													-0.229342	0.050877	-0.188528	0.046825	-0.175724	0.983325	0.994877	-0.080089	-0.061688	0.089594	0.981176	0.171074
227	619530555													-0.242976	0.113856	-0.152786	0.046430	-0.175119	0.983452	0.994910	-0.080037	-0.061223	0.089434	0.981289	0.170511
228	619547222													-0.288248	0.185518	-0.133852	0.045872	-0.174756	0.983543	0.994940	-0.080106	-0.060637	0.089385	0.981348	0.170197
229	619563889													-0.332239	0.231002	-0.126809	0.045413	-0.174571	0.983597	0.994962	-0.080192	-0.060170	0.089381	0.981374	0.170050
230	619580556													-0.373451	0.241833	-0.158570	0.045104	-0.174784	0.983573	0.994982	-0.080159	-0.059872	0.089307	0.981338	0.170292
231	619597223													-0.414954	0.230414	-0.167705	0.044956	-0.175219	0.983503	0.994997	-0.080067	-0.059746	0.089214	0.981268	0.170743
232	619613890													-0.428717	0.179040	-0.124049	0.044785	-0.175987	0.983373	0.995007	-0.080031	-0.059638	0.089196	0.981134	0.171524
233	619630557													-0.412143	0.118778	-0.044155	0.044610	-0.177013	0.983197	0.995008	-0.080069	-0.059562	0.089267	0.980946	0.172557
234	619647224													-0.374229	0.064767	0.044085	0.044465	-0.178078	0.983011	0.995007	-0.080116	-0.059521	0.089354	0.980750	0.173626
235	619663891													-0.295218	0.027321	0.091683	0.044457	-0.179124	0.982822	0.995009	-0.080040	-0.059596	0.089340	0.980565	0.174671
236	619680558													-0.260498	-0.003780	0.036335	0.044594	-0.180032	0.982649	0.995020	-0.079767	-0.059770	0.089144	0.980421	0.175579
237	619697225													-0.243949	-0.011820	-0.056905	0.044792	-0.180785	0.982502	0.995048	-0.079278	-0.059951	0.088729	0.980322	0.176339
238	619713892													-0.300552	-0.001129	-0.131095	0.045051	-0.181431	0.982371	0.995085	-0.078653	-0.060161	0.088182	0.980253	0.176996
239	619730559													-0.338363	0.025617	-0.173842	0.045301	-0.182020	0.982251	0.995127	-0.077978	-0.060345	0.087577	0.980198	0.177600
240	619747226													-0.312182	0.061346	-0.179199	0.045414	-0.182670	0.982125	0.995165	-0.077436	-0.060420	0.087089	0.980120	0.178270
241	619763893													-0.274708	0.074001	-0.159177	0.045409	-0.183513	0.981968	0.995193	-0.077069	-0.060423	0.086767	0.979992	0.179131
242	619780560													-0.314450	0.044770	-0.142664	0.045343	-0.184463	0.981793	0.995213	-0.076834	-0.060398	0.086576	0.979832	0.180096
243	619797227													-0.320904	0.002180	-0.075323	0.045350	-0.185394	0.981617	0.995213	-0.076773	-0.060478	0.086573	0.979661	0.181025
244	619813894													-0.276797	-0.033884	-0.082837	0.045615	-0.186412	0.981412	0.995190	-0.076783	-0.060839	0.086697	0.979467	0.182013
245	619830561													-0.289145	-0.057036	-0.166459	0.045895	-0.187577	0.981177	0.995159	-0.076861	-0.061243	0.086902	0.979238	0.183141
246	619847228													-0.302657	-0.086362	-0.207612	0.045986	-0.188774	0.980943	0.995134	-0.077000	-0.061469	0.087137	0.978997	0.184314
247	619863895													-0.336321	-0.119712	-0.233508	0.045937	-0.189962	0.980716	0.995113	-0.077205	-0.061566	0.087411	0.978751	0.185487
248	619880562													-0.335683	-0.139192	-0.200363	0.045742	-0.190881	0.980547	0.995091	-0.077526	-0.061513	0.087759	0.978547	0.186398
249	619897229													-0.310616	-0.203902	-0.132846	0.045403	-0.191570	0.980428	0.995064	-0.078017	-0.061325	0.088238	0.978373	0.187082
250	619913896													-0.298221	-0.252638	-0.052500	0.045125	-0.192013	0.980354	0.995021	-0.078659	-0.061207	0.088866	0.978235	0.187508
251	619930563													-0.257031	-0.311567	-0.015514	0.044989	-0.192060	0.980351	0.994968	-0.079325	-0.061201	0.089521	0.978172	0.187525
252	619947230													-0.237594	-0.342867	-0.008288	0.044957	-0.191733	0.980417	0.994916	-0.079938	-0.061255	0.090117	0.978186	0.187164
253	619963897													-0.270206	-0.362390	-0.015628	0.045068	-0.190820	0.980590	0.994865	-0.080467	-0.061383	0.090618	0.978321	0.186214
254	619980564													-0.260533	-0.321894	-0.054708	0.045242	-0.189419	0.980854	0.994819	-0.080937	-0.061516	0.091040	0.978555	0.184775
255	619997231													-0.275739	-0.265427	-0.094831	0.045306	-0.187454	0.981228	0.994774	-0.081501	-0.061502	0.091500	0.978886	0.182782
256	620013898													-0.302595	-0.160678	-0.114241	0.045335	-0.185079	0.981677	0.994728	-0.082125	-0.061421	0.091988	0.979286	0.180380
257	620030565													-0.311778	-0.047598	-0.162613	0.045413	-0.182522	0.982152	0.994676	-0.082777	-0.061375	0.092502	0.979711	0.177791
258	620047232													-0.350054	0.071006	-0.200417	0.045602	-0.179896	0.982628	0.994610	-0.083515	-0.061448	0.093119	0.980134	0.175118
259	620063899													-0.381921	0.195686	-0.242395	0.045772	-0.177389	0.983076	0.994537	-0.084330	-0.061522	0.093816	0.980521	0.172560
260	620080566													-0.387358	0.320899	-0.212304	0.045623	-0.175261	0.983464	0.994463	-0.085328	-0.061340	0.094667	0.980817	0.170397
261	620097233													-0.380894	0.415686	-0.176762	0.045121	-0.173709	0.983763	0.994397	-0.086422	-0.060869	0.095593	0.980998	0.168836
262	620113900													-0.384423	0.458249	-0.161685	0.044390	-0.172881	0.983942	0.994357	-0.087345	-0.060206	0.096351	0.981062	0.168028
263	620130567													-0.338337	0.458162	-0.129054	0.043614	-0.172852	0.983982	0.994353	-0.087873	-0.059510	0.096751	0.981020	0.168043
264	620147234													-0.285475	0.371292	-0.116194	0.042795	-0.173571	0.983891	0.994384	-0.088006	-0.058776	0.096790	0.980881	0.168830
265	620163901													-0.264519	0.257087	-0.107497	0.041818	-0.174550	0.983760	0.994442	-0.087952	-0.057878	0.096626	0.980712	0.169902
266	620180568													-0.276791	0.113567	-0.053112	0.040690	-0.175760	0.983592	0.994509	-0.087866	-0.056843	0.096415	0.980504	0.171220
267	620197235													-0.236852	-0.022880	-0.018693	0.039616	-0.176895	0.983432	0.994575	-0.087759	-0.055850	0.096185	0.980309	0.172458
268	620213902													-0.228532	-0.105556	0.043920	0.038759	-0.177828	0.983298	0.994627	-0.087666	-0.055060	0.095993	0.980149	0.173475
269	620230569													-0.199338	-0.161992	0.080954	0.038186	-0.178581	0.983184	0.994668	-0.087530	-0.054531	0.095797	0.980024	0.174287
270	620247236													-0.206578	-0.174942	0.057056	0.037708	-0.179101	0.983108	0.994700	-0.087442	-0.054082	0.095652	0.979937	0.174855
271	620263903													-0.225736	-0.172880	0.016808	0.037274	-0.179454	0.983060	0.994722	-0.087443	-0.053679	0.095595	0.979872	0.175248
272	620280570													-0.288722	-0.128893	-0.077802	0.037125	-0.179661	0.983028	0.994720	-0.087541	-0.053565	0.095679	0.979826	0.175463
273	620297237													-0.295209	-0.014441	-0.198191	0.037239	-0.179600	0.983035	0.994697	-0.087712	-0.053706	0.095870	0.979822	0.175381
274	620313904													-0.283685	0.075324	-0.229570	0.037216	-0.179666	0.983023	0.994673	-0.087967	-0.053735	0.096128	0.979787	0.175436
275	620330571													-0.244653	0.105947	-0.258200	0.036949	-0.179874	0.982996	0.994661	-0.088227	-0.053531	0.096356	0.979725	0.175653
276	620347238													-0.308916	0.077329	-0.214654	0.036257	-0.180097	0.982980	0.994663	-0.088572	-0.052916	0.096594	0.979653	0.175924
277	620363905													-0.291962	0.064327	-0.131885	0.035522	-0.180140	0.982999	0.994661	-0.088988	-0.052251	0.096887	0.979607	0.176018
278	620380572													-0.228286	0.074932	-0.109287	0.034795	-0.180092	0.983034	0.994657	-0.089426	-0.051589	0.097199	0.979576	0.176018
279	620397239													-0.249655	0.034910	-0.042173	0.033852	-0.179958	0.983092	0.994674	-0.089749	-0.050679	0.097352	0.979571	0.175962
280	620413906													-0.325735	-0.010770	0.044892	0.032803	-0.179742	0.983167	0.994717	-0.089867	-0.049617	0.097273	0.979600	0.175844
281	620430573													-0.323548	-0.034418	0.139524	0.031931	-0.179313	0.983274	0.994779	-0.089705	-0.048664	0.096930	0.979694	0.175512
282	620447240													-0.281665	-0.024684	0.113491	0.031549	-0.178670	0.983403	0.994837	-0.089340	-0.048148	0.096460	0.979845	0.174929
283	620463907													-0.259090	-0.015139	-0.017137	0.031510	-0.177679	0.983584	0.994890	-0.088866	-0.047925	0.095922	0.980068	0.173970
284	620480574													-0.266098	-0.055043	-0.105572	0.031445	-0.176354	0.983824	0.994939	-0.088465	-0.047657	0.095438	0.980344	0.172679
285	620497241													-0.305986	-0.091863	-0.187034	0.031206	-0.174713	0.984125	0.994986	-0.088176	-0.047204	0.095023	0.980663	0.171085
286	620513908													-0.291200	-0.097527	-0.212894	0.030912	-0.172823	0.984468	0.995033	-0.087928	-0.046679	0.094629	0.981020	0.169246
287	620530575													-0.274950	-0.052002	-0.240087	0.030749	-0.170772	0.984831	0.995074	-0.087677	-0.046272	0.094249	0.981402	0.167235
288	620547242													-0.293321	0.035231	-0.210084	0.030443	-0.168610	0.985213	0.995121	-0.087437	-0.045713	0.093852	0.981797	0.165126
289	620563909													-0.305580	0.100077	-0.142312	0.029983	-0.166468	0.985591	0.995177	-0.087166	-0.044997	0.093401	0.982187	0.163051
290	620580576													-0.379996	0.219063	-0.159752	0.029052	-0.164426	0.985961	0.995281	-0.086606	-0.043769	0.092587	0.982580	0.161134
291	620597243													-0.382893	0.297761	-0.119699	0.027578	-0.162848	0.986266	0.995450	-0.085554	-0.041961	0.091213	0.982935	0.159748
292	620613910													-0.366990	0.333855	-0.029041	0.025798	-0.161979	0.986457	0.995654	-0.084173	-0.039860	0.089490	0.983198	0.159103
293	620630577													-0.331070	0.230814	0.177956	0.024388	-0.161514	0.986569	0.995816	-0.083009	-0.038206	0.088065	0.983373	0.158814
294	620647244													-0.279070	0.031997	0.366498	0.024236	-0.160822	0.986686	0.995872	-0.082470	-0.037904	0.087468	0.983532	0.158160
295	620663911													-0.252768	-0.168988	0.237856	0.025450	-0.159369	0.986891	0.995838	-0.082381	-0.038984	0.087514	0.983776	0.156609
296	620680578													-0.177285	-0.237823	-0.041249	0.026851	-0.157700	0.987122	0.995796	-0.082285	-0.040232	0.087570	0.984053	0.154827
297	620697245													-0.122779	-0.135384	-0.233436	0.028259	-0.156395	0.987290	0.995791	-0.081738	-0.041451	0.087182	0.984307	0.153427
298	620713912													-0.160312	0.094628	-0.322674	0.029928	-0.155619	0.987364	0.995810	-0.080757	-0.042912	0.086414	0.984511	0.152550
299	620730579													-0.221866	0.386599	-0.356697	0.031079	-0.155208	0.987393	0.995839	-0.079857	-0.043898	0.085664	0.984649	0.152080
300	620747246													-0.258047	0.646147	-0.422806	0.030931	-0.155504	0.987351	0.995900	-0.079224	-0.043677	0.085014	0.984653	0.152416
301	620763913													-0.237225	0.673462	-0.477304	0.029775	-0.156831	0.987176	0.995972	-0.078908	-0.042576	0.084574	0.984468	0.153850
302	620780580													-0.269370	0.507437	-0.416200	0.028254	-0.159153	0.986850	0.996035	-0.078836	-0.041231	0.084361	0.984101	0.156294
303	620797247													-0.292072	0.234445	-0.250193	0.026786	-0.161958	0.986434	0.996077	-0.078935	-0.040008	0.084344	0.983635	0.159209
304	620813914													-0.267001	-0.073259	0.051410	0.025506	-0.165117	0.985944	0.996101	-0.079122	-0.039020	0.084453	0.983095	0.162455
305	620830581													-0.183690	-0.298086	0.303610	0.024626	-0.168415	0.985408	0.996109	-0.079300	-0.038447	0.084617	0.982521	0.165807
306	620847248													-0.097631	-0.348602	0.408649	0.024647	-0.171571	0.984863	0.996104	-0.079228	-0.038731	0.084674	0.981981	0.168950
307	620863915													-0.072416	-0.224346	0.276197	0.025397	-0.174376	0.984352	0.996097	-0.078844	-0.039667	0.084527	0.981517	0.171693
308	620880582													-0.102690	-0.111240	0.052122	0.026102	-0.176840	0.983893	0.996101	-0.078369	-0.040512	0.084271	0.981115	0.174105
309	620897249													-0.227679	-0.043249	-0.153169	0.026520	-0.179013	0.983489	0.996120	-0.077851	-0.041031	0.083911	0.980762	0.176254
310	620913916													-0.260789	0.000545	-0.302057	0.026596	-0.180801	0.983160	0.996153	-0.077359	-0.041174	0.083500	0.980473	0.178048
311	620930583													-0.187004	0.022926	-0.324647	0.026453	-0.182340	0.982880	0.996188	-0.076950	-0.041087	0.083124	0.980220	0.179609
312	620947250													-0.144956	0.008875	-0.288675	0.026101	-0.183915	0.982596	0.996217	-0.076721	-0.040822	0.082893	0.979943	0.181217
313	620963917													-0.165861	0.015725	-0.167787	0.025711	-0.185720	0.982266	0.996230	-0.076679	-0.040575	0.082854	0.979606	0.183049
314	620980584													-0.178641	0.036826	-0.110279	0.025337	-0.187592	0.981920	0.996232	-0.076760	-0.040371	0.082946	0.979243	0.184940
315	620997251													-0.174234	0.022259	-0.051002	0.025000	-0.189592	0.981545	0.996235	-0.076801	-0.040208	0.083006	0.978855	0.186958
316	621013918													-0.201719	-0.015835	-0.045036	0.024614	-0.191424	0.981199	0.996244	-0.076815	-0.039978	0.083023	0.978497	0.188814
317	621030585													-0.199991	-0.094569	0.011400	0.024126	-0.193019	0.980898	0.996252	-0.076885	-0.039633	0.083067	0.978178	0.190441
318	621047252													-0.149051	-0.121669	-0.000751	0.023853	-0.194287	0.980655	0.996252	-0.076969	-0.039481	0.083150	0.977920	0.191723
319	621063919													-0.130739	-0.109133	-0.069064	0.023710	-0.195252	0.980466	0.996240	-0.077131	-0.039451	0.083327	0.977715	0.192689
320	621080586													-0.149816	-0.084775	-0.070045	0.023723	-0.196004	0.980316	0.996212	-0.077427	-0.039589	0.083663	0.977542	0.193425
321	621097253													-0.182223	-0.056446	-0.083309	0.023906	-0.196544	0.980203	0.996172	-0.077782	-0.039892	0.084083	0.977405	0.193932
322	621113920													-0.243334	-0.044995	-0.081955	0.024100	-0.196896	0.980128	0.996126	-0.078213	-0.040205	0.084575	0.977300	0.194248
323	621130587													-0.247415	-0.056567	-0.073807	0.024373	-0.197183	0.980064	0.996069	-0.078723	-0.040609	0.085161	0.977201	0.194489
324	621147254													-0.233333	-0.125456	-0.055500	0.024669	-0.197306	0.980032	0.996012	-0.079230	-0.041022	0.085741	0.977135	0.194565
325	621163921													-0.208205	-0.187430	-0.028754	0.025028	-0.197143	0.980055	0.995956	-0.079703	-0.041467	0.086288	0.977130	0.194351
326	621180588													-0.183102	-0.233689	-0.016744	0.025396	-0.196652	0.980144	0.995905	-0.080124	-0.041880	0.086769	0.977194	0.193812
327	621197255													-0.194615	-0.275237	-0.026113	0.025782	-0.195673	0.980330	0.995864	-0.080433	-0.042245	0.087117	0.977365	0.192790
328	621213922													-0.208361	-0.278895	-0.049423	0.026276	-0.194282	0.980594	0.995835	-0.080579	-0.042649	0.087301	0.977631	0.191355
329	621230589													-0.230619	-0.227284	-0.034842	0.026864	-0.192439	0.980941	0.995806	-0.080704	-0.043103	0.087461	0.977985	0.189463
330	621247256													-0.199386	-0.139292	-0.046648	0.027559	-0.190244	0.981350	0.995766	-0.080904	-0.043648	0.087699	0.978398	0.187208
331	621263923													-0.210877	-0.080611	-0.069695	0.028171	-0.187871	0.981790	0.995714	-0.081280	-0.044124	0.088089	0.978825	0.184776
332	621280590													-0.236803	-0.044838	-0.084962	0.028687	-0.185398	0.982245	0.995656	-0.081778	-0.044514	0.088579	0.979255	0.182247
333	621297257													-0.215681	0.004125	-0.093376	0.029330	-0.182963	0.982682	0.995591	-0.082282	-0.045035	0.089097	0.979670	0.179743
334	621313924													-0.177069	0.046244	-0.133639	0.030061	-0.180483	0.983119	0.995527	-0.082728	-0.045628	0.089566	0.980093	0.177188
335	621330591													-0.180747	0.060676	-0.189984	0.030472	-0.178006	0.983557	0.995478	-0.083169	-0.045894	0.089971	0.980508	0.174667
336	621347258													-0.192791	0.095926	-0.188110	0.030673	-0.175562	0.983990	0.995438	-0.083613	-0.045947	0.090341	0.980911	0.172196
337	621363925													-0.203350	0.189366	-0.222375	0.030766	-0.173347	0.984380	0.995404	-0.084039	-0.045910	0.090685	0.981269	0.169965
338	621380592													-0.243851	0.291966	-0.257862	0.030576	-0.171531	0.984704	0.995381	-0.084476	-0.045623	0.091010	0.981550	0.168156
339	621397259													-0.264498	0.349745	-0.211277	0.030056	-0.170271	0.984939	0.995367	-0.084940	-0.045058	0.091333	0.981730	0.166929
340	621413926													-0.304937	0.356275	-0.163336	0.029556	-0.169566	0.985076	0.995356	-0.085333	-0.044553	0.091614	0.981818	0.166256
341	621430593													-0.263377	0.365026	-0.143224	0.029271	-0.169343	0.985122	0.995345	-0.085601	-0.044289	0.091828	0.981833	0.166049
342	621447260													-0.234988	0.314334	-0.116273	0.028868	-0.169737	0.985067	0.995334	-0.085888	-0.043969	0.092069	0.981740	0.166465
343	621463927													-0.216192	0.264773	-0.066580	0.028315	-0.170468	0.984956	0.995325	-0.086217	-0.043535	0.092341	0.981584	0.167230
344	621480594													-0.251179	0.150720	-0.002664	0.027822	-0.171405	0.984808	0.995316	-0.086500	-0.043174	0.092586	0.981396	0.168195
345	621497261													-0.204123	0.030626	0.086090	0.027524	-0.172396	0.984643	0.995312	-0.086633	-0.042990	0.092713	0.981211	0.169203
346	621513928													-0.156789	-0.045873	0.100818	0.027501	-0.173483	0.984453	0.995316	-0.086560	-0.043058	0.092684	0.981025	0.170290
347	621530595													-0.167067	-0.087592	0.030518	0.027632	-0.174455	0.984277	0.995326	-0.086353	-0.043247	0.092540	0.980871	0.171254
348	621547262													-0.205096	-0.065676	-0.050225	0.027728	-0.175252	0.984133	0.995338	-0.086139	-0.043383	0.092376	0.980748	0.172046
349	621563929													-0.217646	0.001910	-0.146057	0.027816	-0.175979	0.984001	0.995345	-0.085989	-0.043515	0.092271	0.980631	0.172768
350	621580596													-0.231948	0.053696	-0.174608	0.027887	-0.176827	0.983847	0.995342	-0.085948	-0.043660	0.092280	0.980482	0.173607
351	621597263													-0.221039	0.069978	-0.175576	0.027973	-0.177750	0.983678	0.995329	-0.086008	-0.043846	0.092398	0.980310	0.174514
352	621613930													-0.183234	0.075933	-0.189477	0.028083	-0.178802	0.983484	0.995306	-0.086154	-0.044084	0.092613	0.980106	0.175543
353	621630597													-0.133038	0.048589	-0.233785	0.028090	-0.179961	0.983273	0.995284	-0.086331	-0.044234	0.092848	0.979878	0.176687
354	621647264													-0.134259	0.020328	-0.220305	0.027893	-0.181114	0.983067	0.995273	-0.086490	-0.044174	0.093026	0.979652	0.177845
355	621663931													-0.178498	-0.046242	-0.149263	0.027381	-0.182189	0.982882	0.995275	-0.086663	-0.043791	0.093157	0.979437	0.178955
356	621680598													-0.174634	-0.112278	0.038404	0.026625	-0.183163	0.982722	0.995282	-0.086893	-0.043161	0.093297	0.979235	0.179986
357	621697265													-0.164398	-0.140350	0.093399	0.026085	-0.184028	0.982575	0.995280	-0.087122	-0.042739	0.093469	0.979052	0.180887
358	621713932													-0.154806	-0.158417	0.023882	0.025973	-0.184611	0.982468	0.995274	-0.087216	-0.042700	0.093570	0.978934	0.181473
359	621730599													-0.169541	-0.192955	-0.045433	0.026073	-0.184705	0.982448	0.995272	-0.087189	-0.042805	0.093564	0.978919	0.181558
360	621747266													-0.167781	-0.258121	-0.033520	0.026107	-0.184345	0.982515	0.995269	-0.087214	-0.042809	0.093581	0.978984	0.181196
361	621763933													-0.147384	-0.277501	-0.060205	0.026164	-0.183690	0.982636	0.995256	-0.087355	-0.042830	0.093705	0.979095	0.180533
362	621780600													-0.148229	-0.242860	-0.118542	0.026299	-0.182742	0.982809	0.995241	-0.087491	-0.042900	0.093826	0.979260	0.179571
363	621797267													-0.128101	-0.115858	-0.176070	0.026606	-0.181600	0.983013	0.995222	-0.087605	-0.043120	0.093947	0.979463	0.178401
364	621813934													-0.204888	-0.000964	-0.230106	0.026852	-0.180275	0.983250	0.995195	-0.087829	-0.043281	0.094160	0.979687	0.177051
365	621830601													-0.261124	0.098656	-0.208656	0.026656	-0.178909	0.983505	0.995166	-0.088276	-0.043030	0.094518	0.979897	0.175691
366	621847268													-0.289637	0.147690	-0.151478	0.026181	-0.177688	0.983739	0.995143	-0.088779	-0.042521	0.094891	0.980074	0.174501
367	621863935													-0.255263	0.155974	-0.110728	0.025628	-0.176725	0.983927	0.995144	-0.089060	-0.041916	0.095036	0.980223	0.173584
368	621880602													-0.213234	0.081621	-0.021433	0.025428	-0.176022	0.984058	0.995151	-0.089099	-0.041652	0.095011	0.980346	0.172903
369	621897269													-0.276000	0.161521	-0.083683	0.025229	-0.175641	0.984131	0.995206	-0.088638	-0.041332	0.094491	0.980456	0.172563
370	621913936													-0.235565	0.239008	0.017848	0.024198	-0.175846	0.984120	0.995318	-0.087902	-0.040180	0.093572	0.980485	0.172895
371	621930603													-0.190998	0.260423	0.222184	0.023232	-0.176613	0.984006	0.995401	-0.087413	-0.039191	0.092936	0.980391	0.173770
372	621947270													-0.253060	0.296475	0.202544	0.023198	-0.177601	0.983829	0.995427	-0.087110	-0.039196	0.092663	0.980240	0.174768
373	621963937													-0.278388	0.237228	0.117107	0.024042	-0.178407	0.983663	0.995411	-0.086894	-0.040089	0.092627	0.980112	0.175500
374	621980604													-0.254549	0.090070	-0.051320	0.025029	-0.179153	0.983503	0.995378	-0.086777	-0.041138	0.092715	0.979987	0.176153
375	621997271													-0.228987	-0.071571	-0.188848	0.025890	-0.180009	0.983324	0.995359	-0.086554	-0.042051	0.092681	0.979850	0.176933
376	622013938													-0.138868	-0.144314	-0.246169	0.026953	-0.181077	0.983099	0.995355	-0.086063	-0.043141	0.092421	0.979696	0.177917
377	622030605													-0.061613	-0.130954	-0.185591	0.028373	-0.182231	0.982846	0.995337	-0.085530	-0.044591	0.092189	0.979529	0.178954
378	622047272													-0.118475	-0.064175	-0.143073	0.029717	-0.183341	0.982600	0.995288	-0.085341	-0.046024	0.092294	0.979338	0.179941
379	622063939													-0.189319	-0.012942	-0.146310	0.030710	-0.184479	0.982356	0.995222	-0.085487	-0.047166	0.092680	0.979111	0.180973
380	622080606													-0.176739	0.015049	-0.204024	0.031659	-0.185739	0.982089	0.995141	-0.085799	-0.048307	0.093235	0.978846	0.182120
381	622097273													-0.230854	0.107969	-0.318938	0.032348	-0.187230	0.981783	0.995064	-0.086166	-0.049218	0.093812	0.978530	0.183518
382	622113940													-0.217908	0.060483	-0.268091	0.032165	-0.188892	0.981471	0.995027	-0.086566	-0.049270	0.094269	0.978175	0.185169
383	622130607													-0.238664	-0.021179	-0.094877	0.031668	-0.190564	0.981164	0.995011	-0.086905	-0.048994	0.094604	0.977820	0.186862
384	622147274													-0.167034	-0.095006	-0.006446	0.031522	-0.192359	0.980818	0.994998	-0.087028	-0.049045	0.094793	0.977458	0.188654
385	622163941													-0.129874	-0.097214	0.023193	0.031567	-0.194424	0.980409	0.994982	-0.087066	-0.049302	0.094946	0.977046	0.190700
386	622180608													-0.177612	-0.075815	0.018513	0.031750	-0.196449	0.980000	0.994968	-0.087011	-0.049677	0.095029	0.976646	0.192697
387	622197275													-0.228614	-0.050395	-0.034982	0.032156	-0.198235	0.979627	0.994952	-0.086871	-0.050238	0.095060	0.976297	0.194441
388	622213942													-0.201118	-0.002664	-0.076543	0.032726	-0.199798	0.979290	0.994931	-0.086702	-0.050938	0.095084	0.975994	0.195948
389	622230609													-0.172461	-0.016346	-0.068289	0.033254	-0.201257	0.978974	0.994921	-0.086451	-0.051569	0.095012	0.975716	0.197360
390	622247276													-0.154835	-0.024029	-0.032334	0.033631	-0.202736	0.978656	0.994923	-0.086147	-0.052036	0.094858	0.975437	0.198809
391	622263943													-0.169274	-0.041532	-0.017047	0.033888	-0.204252	0.978332	0.994936	-0.085786	-0.052373	0.094625	0.975152	0.200310
392	622280610													-0.183469	0.002048	-0.064393	0.034104	-0.205797	0.978000	0.994963	-0.085305	-0.052646	0.094262	0.974870	0.201851
393	622297277													-0.198912	0.033053	-0.118466	0.034413	-0.207341	0.977663	0.995003	-0.084638	-0.052973	0.093731	0.974600	0.203392
394	622313944													-0.195556	0.051453	-0.162857	0.034923	-0.208911	0.977311	0.995041	-0.083867	-0.053484	0.093137	0.974332	0.204946
395	622330611													-0.213210	0.033621	-0.198195	0.035461	-0.210628	0.976923	0.995069	-0.083161	-0.054050	0.092626	0.974023	0.206641
396	622347278													-0.242293	-0.045856	-0.184545	0.035735	-0.212463	0.976515	0.995095	-0.082630	-0.054393	0.092246	0.973669	0.208468
397	622363945													-0.233640	-0.158935	-0.119615	0.035760	-0.214170	0.976142	0.995112	-0.082336	-0.054520	0.092048	0.973320	0.210179
398	622380612													-0.132518	-0.242239	-0.059410	0.035885	-0.215710	0.975798	0.995115	-0.082151	-0.054755	0.091974	0.972996	0.211708
399	622397279													-0.121934	-0.322802	-0.067767	0.036261	-0.216951	0.975509	0.995104	-0.081970	-0.055219	0.091942	0.972735	0.212917
400	622413946													-0.116295	-0.358207	-0.072716	0.036617	-0.217908	0.975282	0.995091	-0.081834	-0.055645	0.091937	0.972532	0.213842
401	622430613													-0.121762	-0.363916	-0.064040	0.037052	-0.218421	0.975151	0.995072	-0.081750	-0.056120	0.091976	0.972425	0.214315
402	622447280													-0.102067	-0.383717	-0.089671	0.037552	-0.218360	0.975146	0.995052	-0.081650	-0.056602	0.091980	0.972447	0.214213
403	622463947													-0.091447	-0.409532	-0.135903	0.037962	-0.217790	0.975257	0.995038	-0.081582	-0.056951	0.091967	0.972580	0.213612
404	622480614													-0.089416	-0.429561	-0.128137	0.038222	-0.216720	0.975485	0.995023	-0.081646	-0.057127	0.092025	0.972814	0.212521
405	622497281													-0.066469	-0.372439	-0.120875	0.038597	-0.215062	0.975837	0.994995	-0.081804	-0.057383	0.092168	0.973168	0.210828
406	622513948													-0.093584	-0.305963	-0.163124	0.039005	-0.212902	0.976295	0.994959	-0.082055	-0.057645	0.092383	0.973622	0.208628
407	622530615													-0.119576	-0.198700	-0.189307	0.039255	-0.210311	0.976846	0.994926	-0.082407	-0.057723	0.092638	0.974155	0.206009
408	622547282													-0.187086	-0.102996	-0.205578	0.039309	-0.207553	0.977434	0.994898	-0.082824	-0.057598	0.092910	0.974711	0.203238
409	622563949													-0.209243	0.018279	-0.183547	0.039225	-0.204722	0.978034	0.994876	-0.083271	-0.057331	0.093179	0.975272	0.200407
410	622580616													-0.212632	0.122593	-0.137645	0.038985	-0.202022	0.978605	0.994857	-0.083782	-0.056928	0.093490	0.975791	0.197716
411	622597283													-0.208401	0.212425	-0.103442	0.038619	-0.199579	0.979120	0.994839	-0.084329	-0.056429	0.093830	0.976246	0.195292
412	622613950													-0.215510	0.279699	-0.097380	0.038301	-0.197529	0.979549	0.994816	-0.084878	-0.056014	0.094207	0.976616	0.193254
413	622630617													-0.265366	0.325215	-0.110897	0.037991	-0.196036	0.979861	0.994791	-0.085396	-0.055654	0.094587	0.976871	0.191770
414	622647284													-0.255479	0.369636	-0.134332	0.037768	-0.195051	0.980066	0.994764	-0.085866	-0.055423	0.094965	0.977027	0.190787
415	622663951													-0.213386	0.334019	-0.132097	0.037438	-0.194709	0.980146	0.994757	-0.086151	-0.055110	0.095171	0.977070	0.190462
416	622680618													-0.215375	0.244977	-0.097318	0.036945	-0.194886	0.980130	0.994781	-0.086172	-0.054631	0.095107	0.977033	0.190685
417	622697285													-0.224211	0.137041	-0.071493	0.036483	-0.195487	0.980027	0.994829	-0.085912	-0.054171	0.094786	0.976936	0.191342
418	622713952													-0.212327	0.067309	-0.065373	0.036006	-0.196262	0.979890	0.994880	-0.085614	-0.053705	0.094433	0.976807	0.192175
419	622730619													-0.151636	0.016014	-0.024130	0.035601	-0.197184	0.979720	0.994916	-0.085420	-0.053345	0.094206	0.976638	0.193140
420	622747286													-0.162054	-0.022137	-0.044165	0.035450	-0.198110	0.979539	0.994924	-0.085372	-0.053273	0.094179	0.976455	0.194078
421	622763953													-0.155508	-0.053344	-0.044114	0.035335	-0.199163	0.979329	0.994923	-0.085389	-0.053263	0.094232	0.976239	0.195135
422	622780620													-0.152333	-0.088024	-0.015710	0.035361	-0.200239	0.979109	0.994915	-0.085403	-0.053398	0.094311	0.976018	0.196201
423	622797287													-0.065184	-0.088313	-0.060549	0.035733	-0.201253	0.978887	0.994892	-0.085375	-0.053869	0.094414	0.975812	0.197174
424	622813954													-0.042620	-0.117181	-0.144988	0.036066	-0.202139	0.978693	0.994866	-0.085401	-0.054300	0.094558	0.975626	0.198021
425	622830621													-0.029803	-0.121899	-0.181126	0.036098	-0.202797	0.978555	0.994842	-0.085591	-0.054437	0.094795	0.975473	0.198661
426	622847288													-0.027668	-0.091610	-0.205227	0.036050	-0.203291	0.978455	0.994817	-0.085845	-0.054489	0.095072	0.975348	0.199142
427	622863955													-0.014735	-0.061188	-0.221357	0.035894	-0.203609	0.978394	0.994801	-0.086083	-0.054411	0.095302	0.975261	0.199460
428	622880622													-0.037365	-0.085422	-0.191093	0.035379	-0.203726	0.978388	0.994804	-0.086337	-0.053951	0.095463	0.975214	0.199613
429	622897289													-0.072632	-0.116952	-0.126493	0.034725	-0.203713	0.978415	0.994809	-0.086652	-0.053348	0.095649	0.975189	0.199646
430	622913956													-0.083820	-0.139807	-0.096498	0.034226	-0.203463	0.978484	0.994808	-0.086953	-0.052878	0.095841	0.975214	0.199431
431	622930623													-0.055349	-0.123155	-0.059459	0.033802	-0.203020	0.978591	0.994798	-0.087308	-0.052475	0.096093	0.975274	0.199013
432	622947290													-0.059547	-0.104155	-0.019492	0.033458	-0.202403	0.978731	0.994779	-0.087722	-0.052148	0.096412	0.975365	0.198411
433	622963957													-0.075705	-0.045572	-0.023723	0.033291	-0.201619	0.978898	0.994758	-0.088068	-0.051970	0.096688	0.975497	0.197631
434	622980624													-0.121561	-0.004931	-0.066555	0.033132	-0.200692	0.979094	0.994749	-0.088291	-0.051759	0.096833	0.975668	0.196713
435	622997291													-0.160797	0.039029	-0.062123	0.032764	-0.199715	0.979306	0.994759	-0.088433	-0.051316	0.096851	0.975855	0.195771
436	623013958													-0.154624	0.065386	-0.019751	0.032509	-0.198624	0.979536	0.994775	-0.088468	-0.050954	0.096778	0.976075	0.194710
437	623030625													-0.126583	0.104866	-0.066054	0.032593	-0.197549	0.979751	0.994792	-0.088304	-0.050898	0.096571	0.976308	0.193642
438	623047292													-0.124944	0.079509	-0.122049	0.032888	-0.196666	0.979919	0.994802	-0.088094	-0.051068	0.096369	0.976505	0.192746
439	623063959													-0.145937	0.079072	-0.124095	0.033359	-0.195924	0.980051	0.994803	-0.087880	-0.051430	0.096203	0.976673	0.191975
440	623080626													-0.173872	0.228292	-0.259355	0.033420	-0.195385	0.980157	0.994843	-0.087464	-0.051355	0.095762	0.976819	0.191454
441	623097293													-0.155071	0.303528	-0.188095	0.032393	-0.195125	0.980243	0.994956	-0.086869	-0.050171	0.094943	0.976924	0.191327
442	623113960													-0.148750	0.265182	-0.080176	0.031030	-0.195188	0.980275	0.995095	-0.086137	-0.048650	0.093934	0.976976	0.191558
443	623130627													-0.163722	0.274707	0.060052	0.029689	-0.195558	0.980243	0.995243	-0.085256	-0.047151	0.092792	0.976979	0.192097
444	623147294													-0.094398	0.222429	0.189189	0.028923	-0.196122	0.980153	0.995343	-0.084553	-0.046290	0.091953	0.976927	0.192763
445	623163961													-0.012814	0.081282	0.230619	0.028810	-0.196543	0.980072	0.995376	-0.084245	-0.046154	0.091638	0.976869	0.193207
446	623180628													-0.005279	-0.124848	0.149138	0.029611	-0.196539	0.980049	0.995351	-0.084104	-0.046939	0.091652	0.976882	0.193135
447	623197295													-0.021889	-0.214205	-0.072477	0.031387	-0.196233	0.980055	0.995298	-0.083761	-0.048646	0.091637	0.976973	0.192681
448	623213962													-0.063650	-0.064571	-0.275873	0.033402	-0.196242	0.979986	0.995255	-0.083124	-0.050568	0.091384	0.977026	0.192534
449	623230629													-0.077636	0.137626	-0.354193	0.035243	-0.196826	0.979805	0.995220	-0.082440	-0.052359	0.091081	0.976966	0.192980
450	623247296													-0.180366	0.311696	-0.362636	0.036744	-0.197713	0.979571	0.995176	-0.081983	-0.053876	0.090961	0.976826	0.193747
451	623263963													-0.254404	0.297074	-0.364553	0.037490	-0.198678	0.979348	0.995126	-0.082028	-0.054735	0.091209	0.976626	0.194634
452	623280630													-0.254828	0.115808	-0.355363	0.037319	-0.199774	0.979131	0.995084	-0.082517	-0.054763	0.091735	0.976361	0.195713
453	623297297													-0.143515	-0.116060	-0.265774	0.036738	-0.200808	0.978942	0.995066	-0.082996	-0.054367	0.092165	0.976109	0.196768
454	623313964													-0.071586	-0.282332	-0.131170	0.036264	-0.201700	0.978776	0.995077	-0.083109	-0.053994	0.092235	0.975915	0.197693
455	623330631													-0.087100	-0.328716	0.045751	0.035905	-0.202466	0.978631	0.995108	-0.082947	-0.053671	0.092041	0.975770	0.198497
456	623347298													-0.124025	-0.242865	0.169323	0.035353	-0.203193	0.978500	0.995163	-0.082637	-0.053115	0.091653	0.975645	0.199289
457	623363965													-0.132095	-0.117013	0.194510	0.035127	-0.203892	0.978363	0.995204	-0.082291	-0.052882	0.091293	0.975529	0.200023
458	623380632													-0.116074	-0.027545	0.037188	0.035644	-0.204572	0.978202	0.995214	-0.081853	-0.053382	0.090990	0.975423	0.200675
459	623397299													-0.159399	-0.010683	-0.118311	0.036494	-0.205037	0.978074	0.995205	-0.081423	-0.054202	0.090752	0.975362	0.201082
460	623413966													-0.158780	-0.042854	-0.260834	0.037232	-0.205264	0.977998	0.995190	-0.081127	-0.054914	0.090614	0.975338	0.201256
461	623430633													-0.079230	-0.044660	-0.308781	0.037664	-0.205356	0.977962	0.995187	-0.080891	-0.055313	0.090467	0.975339	0.201321
462	623447300													-0.026764	0.016053	-0.344766	0.037785	-0.205544	0.977918	0.995202	-0.080645	-0.055403	0.090252	0.975319	0.201511
463	623463967													-0.095157	0.054876	-0.300042	0.037521	-0.205903	0.977853	0.995240	-0.080374	-0.055112	0.089942	0.975266	0.201907
464	623480634													-0.116084	0.097228	-0.170229	0.036791	-0.206480	0.977759	0.995296	-0.080173	-0.054382	0.089619	0.975161	0.202559
465	623497301													-0.137996	0.099801	-0.081747	0.035836	-0.207381	0.977604	0.995363	-0.079975	-0.053452	0.089269	0.974986	0.203554
466	623513968													-0.105056	0.066720	-0.066740	0.035038	-0.208482	0.977398	0.995421	-0.079753	-0.052695	0.088936	0.974769	0.204733
467	623530635													-0.091750	-0.002936	-0.002378	0.034520	-0.209780	0.977139	0.995456	-0.079605	-0.052257	0.088748	0.974503	0.206079
468	623547302													-0.157834	-0.073732	0.077573	0.034417	-0.211173	0.976843	0.995459	-0.079553	-0.052270	0.088749	0.974206	0.207476
469	623563969													-0.147540	-0.099141	0.056639	0.034599	-0.212715	0.976501	0.995440	-0.079574	-0.052604	0.088894	0.973869	0.208992
470	623580636													-0.117930	-0.094688	-0.041977	0.035156	-0.214234	0.976149	0.995404	-0.079554	-0.053309	0.089078	0.973537	0.210453
471	623597303													-0.093344	-0.090772	-0.189701	0.035779	-0.215645	0.975816	0.995369	-0.079489	-0.054062	0.089225	0.973231	0.211802
472	623613970													-0.112060	-0.176500	-0.214244	0.036139	-0.216839	0.975538	0.995338	-0.079542	-0.054553	0.089425	0.972961	0.212953
473	623630637													-0.075627	-0.283847	-0.170100	0.036280	-0.217791	0.975321	0.995303	-0.079774	-0.054837	0.089748	0.972730	0.213874
474	623647304													-0.027717	-0.408418	-0.103018	0.036368	-0.218339	0.975195	0.995259	-0.080171	-0.055066	0.090206	0.972574	0.214389
475	623663971													0.006296	-0.451098	-0.061898	0.036396	-0.218268	0.975210	0.995206	-0.080732	-0.055211	0.090781	0.972544	0.214283
476	623680638													0.048649	-0.453344	-0.015389	0.036461	-0.217493	0.975381	0.995149	-0.081344	-0.055339	0.091378	0.972666	0.213472
477	623697305													0.025731	-0.428633	-0.014102	0.036593	-0.216021	0.975703	0.995099	-0.081871	-0.055446	0.091859	0.972950	0.211967
478	623713972													-0.065667	-0.346332	-0.074572	0.036848	-0.213950	0.976149	0.995056	-0.082296	-0.055599	0.092228	0.973372	0.209859
479	623730639													-0.121291	-0.213040	-0.132628	0.037178	-0.211496	0.976672	0.995014	-0.082679	-0.055780	0.092548	0.973876	0.207367
480	623747306													-0.117074	-0.076861	-0.158539	0.037427	-0.208943	0.977211	0.994971	-0.083129	-0.055881	0.092911	0.974388	0.204781
481	623763973													-0.189781	0.034205	-0.184964	0.037727	-0.206527	0.977713	0.994921	-0.083607	-0.056052	0.093320	0.974862	0.202324
482	623780640													-0.237888	0.146248	-0.188106	0.037729	-0.204394	0.978161	0.994877	-0.084192	-0.055966	0.093793	0.975261	0.200171
483	623797307													-0.197771	0.244112	-0.122416	0.037619	-0.202656	0.978527	0.994833	-0.084808	-0.055810	0.094298	0.975571	0.198419
484	623813974													-0.093612	0.300576	-0.170593	0.037598	-0.201488	0.978769	0.994796	-0.085267	-0.055767	0.094693	0.975773	0.197233
485	623830641													-0.106666	0.287702	-0.206980	0.037361	-0.200996	0.978879	0.994787	-0.085530	-0.055530	0.094885	0.975851	0.196752
486	623847308													-0.129634	0.271907	-0.168933	0.036899	-0.201168	0.978862	0.994812	-0.085535	-0.055079	0.094807	0.975815	0.196968
487	623863975													-0.124245	0.265396	-0.122128	0.036291	-0.201890	0.978736	0.994862	-0.085323	-0.054489	0.094509	0.975685	0.197757
488	623880642													-0.143773	0.248315	-0.078079	0.035540	-0.203002	0.978533	0.994925	-0.085043	-0.053778	0.094134	0.975478	0.198950
489	623897309													-0.154453	0.146464	-0.024796	0.034665	-0.204414	0.978271	0.994995	-0.084732	-0.052963	0.093717	0.975210	0.200453
490	623913976													-0.098882	0.041401	0.035028	0.033898	-0.206184	0.977926	0.995064	-0.084351	-0.052276	0.093267	0.974871	0.202307
491	623930643													-0.026354	-0.049823	0.061590	0.033463	-0.208234	0.977506	0.995123	-0.083864	-0.051931	0.092792	0.974477	0.204412
492	623947310													-0.020456	-0.095435	0.073752	0.033431	-0.210395	0.977045	0.995166	-0.083312	-0.051991	0.092338	0.974060	0.206592
493	623963977													-0.024256	-0.113270	0.059346	0.033573	-0.212567	0.976569	0.995194	-0.082827	-0.052242	0.091991	0.973630	0.208765
494	623980644													-0.067635	-0.083533	0.010907	0.033802	-0.214872	0.976057	0.995208	-0.082419	-0.052610	0.091750	0.973158	0.211057
495	623997311													-0.042562	-0.031193	-0.099636	0.034417	-0.217143	0.975533	0.995208	-0.081949	-0.053352	0.091529	0.972694	0.213282
496	624013978													-0.033726	-0.003563	-0.269791	0.035224	-0.219402	0.974998	0.995198	-0.081452	-0.054282	0.091325	0.972229	0.215480
497	624030645													-0.050741	-0.024523	-0.340599	0.035735	-0.221744	0.974450	0.995193	-0.081073	-0.054944	0.091186	0.971729	0.217781
498	624047312													-0.044886	-0.110294	-0.335801	0.035705	-0.224129	0.973905	0.995202	-0.080854	-0.055093	0.091092	0.971200	0.220167
499	624063979													-0.013748	-0.141957	-0.256425	0.035244	-0.226380	0.973401	0.995229	-0.080713	-0.054805	0.090973	0.970689	0.222456
500	624080646													-0.032135	-0.171631	-0.097888	0.034496	-0.228295	0.972981	0.995270	-0.080623	-0.054203	0.090819	0.970248	0.224434
501	624097313													-0.053503	-0.204310	0.059860	0.033753	-0.229877	0.972634	0.995313	-0.080510	-0.053568	0.090621	0.969884	0.226082
502	624113980													-0.020170	-0.220036	0.055215	0.033301	-0.231214	0.972333	0.995355	-0.080251	-0.053173	0.090325	0.969588	0.227467
503	624130647													-0.066831	-0.270576	0.000937	0.033174	-0.232230	0.972095	0.995398	-0.079814	-0.053037	0.089903	0.969381	0.228514
504	624147314													-0.072059	-0.321806	-0.024130	0.033376	-0.232811	0.971949	0.995428	-0.079340	-0.053187	0.089497	0.969280	0.229098
505	624163981													-0.083598	-0.355332	-0.064797	0.033618	-0.232971	0.971903	0.995445	-0.078997	-0.053368	0.089211	0.969270	0.229254
506	624180648													-0.059640	-0.347333	-0.050224	0.033747	-0.232560	0.971996	0.995461	-0.078776	-0.053409	0.088991	0.969386	0.228846
507	624197315													-0.056630	-0.331664	-0.089839	0.034092	-0.231499	0.972238	0.995475	-0.078470	-0.053591	0.088698	0.969665	0.227777
508	624213982													-0.074362	-0.245372	-0.202645	0.034565	-0.229921	0.972595	0.995491	-0.078097	-0.053841	0.088336	0.970071	0.226184
509	624230649													-0.114241	-0.163627	-0.239257	0.034746	-0.227943	0.973054	0.995516	-0.077825	-0.053779	0.087986	0.970559	0.224217
510	624247316													-0.198250	-0.090381	-0.265658	0.034699	-0.225737	0.973570	0.995538	-0.077722	-0.053503	0.087745	0.971083	0.222033
511	624263983													-0.200393	-0.056499	-0.157741	0.034382	-0.223441	0.974111	0.995563	-0.077769	-0.052978	0.087593	0.971610	0.219775
512	624280650													-0.198782	-0.006293	-0.009168	0.034186	-0.221135	0.974644	0.995588	-0.077736	-0.052558	0.087388	0.972140	0.217502
513	624297317													-0.189052	0.090278	-0.055956	0.034132	-0.219029	0.975121	0.995636	-0.077340	-0.052222	0.086854	0.972648	0.215433
514	624313984													-0.086794	0.138162	-0.109512	0.033877	-0.217195	0.975540	0.995724	-0.076603	-0.051632	0.085943	0.973118	0.213671
515	624330651													-0.065546	0.161331	-0.097736	0.033548	-0.215509	0.975925	0.995823	-0.075754	-0.050960	0.084913	0.973559	0.212068
516	624347318													-0.105464	0.168627	-0.087268	0.033261	-0.213955	0.976277	0.995924	-0.074843	-0.050332	0.083836	0.973972	0.210593
517	624363985													-0.177331	0.126993	-0.023787	0.032730	-0.212508	0.976611	0.996027	-0.074035	-0.049491	0.082821	0.974351	0.209241
518	624380652													-0.108022	0.070791	0.033644	0.032124	-0.211456	0.976859	0.996122	-0.073328	-0.048630	0.081915	0.974633	0.208281
519	624397319													-0.010599	0.003711	-0.092328	0.032104	-0.210608	0.977043	0.996195	-0.072499	-0.048361	0.081019	0.974879	0.207479
520	624413986													0.034610	-0.035608	-0.183484	0.032545	-0.209549	0.977256	0.996248	-0.071644	-0.048540	0.080186	0.975170	0.206431
521	624430653													0.001311	-0.097929	-0.205056	0.033103	-0.208307	0.977503	0.996273	-0.071067	-0.048883	0.079651	0.975478	0.205178
522	624447320													-0.061974	-0.137182	-0.188104	0.033629	-0.206975	0.977768	0.996266	-0.070895	-0.049272	0.079517	0.975774	0.203818
523	624463987													-0.034330	-0.139101	-0.136826	0.034162	-0.205590	0.978042	0.996230	-0.071081	-0.049739	0.079746	0.976053	0.202387
524	624480654													-0.061490	-0.085678	-0.083065	0.034786	-0.204087	0.978335	0.996173	-0.071462	-0.050328	0.080185	0.976341	0.200820
525	624497321													-0.133937	0.047386	-0.093170	0.035548	-0.202494	0.978638	0.996111	-0.071817	-0.051042	0.080619	0.976646	0.199154
526	624513988													-0.163884	0.240207	-0.198508	0.036151	-0.201118	0.978900	0.996077	-0.071914	-0.051560	0.080766	0.976924	0.197729
527	624530655													-0.168486	0.390357	-0.255996	0.036214	-0.200322	0.979061	0.996104	-0.071593	-0.051492	0.080409	0.977111	0.196949
528	624547322													-0.122167	0.380779	-0.195127	0.035805	-0.200295	0.979081	0.996163	-0.071137	-0.050983	0.079861	0.977150	0.196979
529	624563989													-0.136781	0.284761	-0.053497	0.035005	-0.201035	0.978958	0.996227	-0.070818	-0.050165	0.079412	0.977021	0.197798
530	624580656													-0.140741	0.120099	0.075758	0.034330	-0.202044	0.978775	0.996271	-0.070654	-0.049528	0.079161	0.976825	0.198865
531	624597323													-0.073917	0.001177	0.132953	0.034062	-0.202969	0.978593	0.996292	-0.070505	-0.049302	0.079002	0.976644	0.199814
532	624613990													0.015632	-0.095587	0.093808	0.034217	-0.203747	0.978425	0.996309	-0.070164	-0.049453	0.078726	0.976506	0.200594
533	624630657													0.046813	-0.098717	0.020942	0.034870	-0.204414	0.978263	0.996324	-0.069528	-0.050042	0.078246	0.976412	0.201238
534	624647324													0.049189	0.024309	-0.033175	0.035698	-0.204960	0.978119	0.996344	-0.068711	-0.050761	0.077611	0.976356	0.201758
535	624663991													-0.037967	0.200847	-0.091536	0.036403	-0.205587	0.977962	0.996366	-0.067945	-0.051372	0.077009	0.976277	0.202367
536	624680658													-0.108968	0.315793	-0.211042	0.036663	-0.206490	0.977761	0.996396	-0.067338	-0.051583	0.076492	0.976129	0.203277
537	624697325													-0.151843	0.327677	-0.318468	0.036616	-0.207898	0.977465	0.996430	-0.066862	-0.051547	0.076072	0.975863	0.204708
538	624713992													-0.164041	0.283914	-0.361516	0.036471	-0.209901	0.977042	0.996464	-0.066413	-0.051463	0.075691	0.975465	0.206736
539	624730659													-0.147082	0.127152	-0.261072	0.035957	-0.212415	0.976518	0.996499	-0.066182	-0.051089	0.075480	0.974936	0.209291
540	624747326													-0.114638	-0.059244	-0.096290	0.035370	-0.215041	0.975964	0.996531	-0.066024	-0.050663	0.075332	0.974371	0.211960
541	624763993													-0.063750	-0.211953	0.081567	0.035061	-0.217295	0.975476	0.996555	-0.065799	-0.050476	0.075154	0.973886	0.214240
542	624780660													-0.048950	-0.314522	0.212989	0.035145	-0.219023	0.975087	0.996563	-0.065554	-0.050644	0.075013	0.973515	0.215966
543	624797327													-0.038560	-0.361150	0.188336	0.035888	-0.220358	0.974759	0.996551	-0.065141	-0.051416	0.074827	0.973242	0.217260
544	624813994													-0.094391	-0.339835	0.114547	0.037030	-0.221548	0.974446	0.996523	-0.064645	-0.052566	0.074639	0.973004	0.218384
545	624830661													-0.117484	-0.265736	0.021751	0.038299	-0.222639	0.974148	0.996485	-0.064170	-0.053843	0.074498	0.972787	0.219398
546	624847328													-0.150867	-0.188366	-0.104751	0.039624	-0.223550	0.973887	0.996450	-0.063611	-0.055143	0.074277	0.972615	0.220236
547	624863995													-0.202176	-0.140152	-0.169506	0.040655	-0.224104	0.973717	0.996429	-0.063078	-0.056121	0.073997	0.972522	0.220739
548	624880662													-0.212040	-0.133691	-0.258817	0.041614	-0.224340	0.973622	0.996414	-0.062535	-0.056997	0.073672	0.972502	0.220934
549	624897329													-0.161639	-0.173671	-0.244767	0.042463	-0.224383	0.973575	0.996401	-0.062040	-0.057758	0.073361	0.972524	0.220941
550	624913996													-0.153417	-0.194897	-0.161746	0.043277	-0.224513	0.973510	0.996383	-0.061632	-0.058507	0.073135	0.972520	0.221034
551	624930663													-0.190006	-0.169863	-0.087878	0.044271	-0.224655	0.973432	0.996347	-0.061302	-0.059460	0.073032	0.972508	0.221120
552	624947330													-0.239862	-0.075707	-0.070924	0.045422	-0.224700	0.973369	0.996292	-0.061086	-0.060593	0.073074	0.972511	0.221092
553	624963997													-0.218638	0.018047	-0.088423	0.046512	-0.224779	0.973299	0.996241	-0.060838	-0.061659	0.073073	0.972509	0.221105
554	624980664													-0.264379	0.069135	-0.093814	0.047603	-0.224930	0.973211	0.996204	-0.060396	-0.062686	0.072878	0.972501	0.221201
555	624997331													-0.287999	0.111239	-0.081351	0.048852	-0.225385	0.973044	0.996164	-0.059823	-0.063870	0.072606	0.972431	0.221598
556	625013998													-0.254782	0.157086	-0.099432	0.050126	-0.226338	0.972758	0.996119	-0.059222	-0.065109	0.072345	0.972247	0.222491
557	625030665													-0.191547	0.213169	-0.143983	0.051419	-0.227817	0.972345	0.996074	-0.058558	-0.066393	0.072064	0.971942	0.223911
558	625047332													-0.161042	0.218481	-0.217232	0.052572	-0.229818	0.971813	0.996041	-0.057790	-0.067549	0.071685	0.971516	0.225870
559	625063999													-0.170161	0.198566	-0.243687	0.053458	-0.232226	0.971192	0.996024	-0.057011	-0.068457	0.071266	0.970990	0.228255
560	625080666													-0.195087	0.166031	-0.229864	0.054121	-0.234966	0.970496	0.996017	-0.056269	-0.069167	0.070860	0.970374	0.230985
561	625097333													-0.155627	0.143417	-0.174211	0.054620	-0.237987	0.969731	0.996017	-0.055560	-0.069736	0.070474	0.969678	0.234004
562	625114000													-0.126686	0.155870	-0.099368	0.054974	-0.241374	0.968874	0.996031	-0.054774	-0.070160	0.070004	0.968885	0.237405
563	625130667													-0.134739	0.107992	-0.062209	0.055226	-0.245284	0.967877	0.996068	-0.053713	-0.070447	0.069267	0.967962	0.241353
564	625147334													-0.132535	0.006602	-0.042104	0.055497	-0.249589	0.966760	0.996124	-0.052331	-0.070693	0.068236	0.966937	0.245717
565	625164001													-0.076791	-0.077458	-0.029106	0.055927	-0.254017	0.965581	0.996184	-0.050708	-0.071039	0.067008	0.965870	0.250211
566	625180668													0.023236	-0.174738	-0.070290	0.056697	-0.258393	0.964375	0.996230	-0.048889	-0.071669	0.065666	0.964802	0.254647
567	625197335													0.041665	-0.309183	-0.074019	0.057720	-0.262562	0.963187	0.996251	-0.047126	-0.072548	0.064439	0.963764	0.258858
568	625214002													0.075656	-0.364783	-0.119426	0.058847	-0.266283	0.962097	0.996246	-0.045637	-0.073567	0.063497	0.962814	0.262598
569	625230669													0.102424	-0.330334	-0.106675	0.059819	-0.269370	0.961177	0.996224	-0.044590	-0.074496	0.062926	0.962004	0.265685
570	625247336													0.056877	-0.246838	-0.086263	0.060707	-0.271970	0.960389	0.996187	-0.043885	-0.075397	0.062652	0.961305	0.268269
571	625264003													-0.006737	-0.123805	-0.196115	0.061723	-0.274255	0.959674	0.996145	-0.043128	-0.076393	0.062340	0.960689	0.270536
572	625280670													-0.041665	-0.037076	-0.273290	0.062688	-0.276538	0.958956	0.996115	-0.042201	-0.077286	0.061841	0.960076	0.272818
573	625297337													-0.042175	-0.062896	-0.273050	0.063662	-0.278823	0.958230	0.996094	-0.041119	-0.078142	0.061189	0.959462	0.275116
574	625314004													0.026580	-0.136072	-0.210803	0.064578	-0.281173	0.957482	0.996074	-0.040054	-0.078943	0.060548	0.958821	0.277482
575	625330671													0.097711	-0.202107	-0.111836	0.065387	-0.283329	0.956791	0.996055	-0.039111	-0.079652	0.059989	0.958225	0.279654
576	625347338													0.144123	-0.224750	-0.021677	0.066282	-0.285066	0.956213	0.996023	-0.038286	-0.080455	0.059544	0.957743	0.281395
577	625364005													0.166214	-0.221372	0.085977	0.067385	-0.286245	0.955784	0.995973	-0.037475	-0.081442	0.059131	0.957423	0.282567
578	625380672													0.135712	-0.233467	0.050376	0.068835	-0.286864	0.955495	0.995915	-0.036340	-0.082657	0.058434	0.957282	0.283191
579	625397339													0.061099	-0.251396	-0.057972	0.070184	-0.286996	0.955357	0.995891	-0.034784	-0.083611	0.057227	0.957300	0.283376
580	625414006													-0.049083	-0.293866	-0.060985	0.071329	-0.286553	0.955405	0.995905	-0.032873	-0.084212	0.055539	0.957500	0.283035
581	625430673													-0.100074	-0.331758	-0.031865	0.072404	-0.285519	0.955634	0.995930	-0.030865	-0.084679	0.053673	0.957876	0.282122
582	625447340													-0.038588	-0.279596	0.009065	0.073573	-0.284043	0.955985	0.995939	-0.028952	-0.085250	0.051893	0.958374	0.280760
583	625464007													-0.000811	-0.254811	-0.078803	0.075078	-0.282282	0.956389	0.995909	-0.027138	-0.086190	0.050284	0.958948	0.279090
584	625480674													0.058042	-0.202585	-0.197668	0.076681	-0.280407	0.956814	0.995853	-0.025579	-0.087306	0.048955	0.959540	0.277282
585	625497341													0.010460	-0.163877	-0.267046	0.078260	-0.278201	0.957329	0.995777	-0.024422	-0.088500	0.048000	0.960212	0.275115
586	625514008													-0.048789	-0.105113	-0.352445	0.079546	-0.275432	0.958024	0.995707	-0.023666	-0.089479	0.047318	0.961029	0.272368
587	625530675													-0.041620	-0.097660	-0.424626	0.080384	-0.272072	0.958914	0.995670	-0.023152	-0.090034	0.046697	0.961998	0.269032
588	625547342													-0.023792	-0.168633	-0.450017	0.080712	-0.268255	0.959961	0.995674	-0.022788	-0.090082	0.046040	0.963078	0.265255
589	625564009													-0.066240	-0.206785	-0.366562	0.080653	-0.263989	0.961148	0.995704	-0.022673	-0.089780	0.045493	0.964259	0.261026
590	625580676													-0.087067	-0.171241	-0.177503	0.080398	-0.259288	0.962448	0.995735	-0.022946	-0.089360	0.045254	0.965527	0.256337
591	625597343													-0.127368	-0.068787	-0.042751	0.080243	-0.254491	0.963740	0.995748	-0.023423	-0.089093	0.045247	0.966791	0.251529
592	625614010													-0.166309	0.045402	-0.069053	0.080104	-0.250165	0.964884	0.995758	-0.023880	-0.088858	0.045270	0.967909	0.247190
593	625630677													-0.219483	0.139598	-0.107271	0.079929	-0.246571	0.965823	0.995775	-0.024187	-0.088583	0.045203	0.968823	0.243596
594	625647344													-0.275502	0.234077	-0.141631	0.080104	-0.243808	0.966510	0.995767	-0.024271	-0.088651	0.045072	0.969520	0.240831
595	625664011													-0.255281	0.318631	-0.227968	0.080515	-0.241725	0.966999	0.995737	-0.024306	-0.088983	0.045013	0.970040	0.238737
596	625680678													-0.176549	0.321607	-0.330917	0.080700	-0.240194	0.967365	0.995716	-0.024532	-0.089156	0.045146	0.970415	0.237185
597	625697345													-0.069706	0.219563	-0.412971	0.080491	-0.239135	0.967644	0.995716	-0.025037	-0.089014	0.045513	0.970664	0.236095
598	625714012													-0.024548	0.073585	-0.405245	0.079935	-0.238483	0.967851	0.995734	-0.025792	-0.088593	0.046091	0.970804	0.235404
599	625730679													-0.013875	-0.055164	-0.264500	0.078954	-0.237971	0.968058	0.995774	-0.026859	-0.087817	0.046899	0.970901	0.234845
600	625747346													0.041893	-0.104656	-0.108671	0.077739	-0.237300	0.968321	0.995826	-0.028099	-0.086834	0.047815	0.971030	0.234126
601	625764013													0.060315	-0.092302	0.018431	0.076455	-0.236557	0.968605	0.995886	-0.029276	-0.085758	0.048644	0.971176	0.233346
602	625780680													-0.012931	-0.024781	0.048318	0.075361	-0.235934	0.968843	0.995938	-0.030208	-0.084825	0.049279	0.971300	0.232699
603	625797347													-0.102938	0.091135	-0.016086	0.074660	-0.235644	0.968967	0.995967	-0.030864	-0.084246	0.049758	0.971349	0.232389
604	625814014													-0.187533	0.180142	-0.173253	0.074220	-0.235824	0.968957	0.995979	-0.031356	-0.083921	0.050173	0.971290	0.232549
605	625830681													-0.235879	0.191021	-0.268178	0.073642	-0.236468	0.968845	0.995996	-0.031938	-0.083501	0.050688	0.971114	0.233169
606	625847348													-0.176552	0.156401	-0.275382	0.072950	-0.237404	0.968668	0.996018	-0.032575	-0.082994	0.051257	0.970865	0.234082
607	625864015													-0.117753	0.076945	-0.241688	0.072338	-0.238302	0.968493	0.996033	-0.033202	-0.082564	0.051831	0.970624	0.234954
608	625880682													-0.018538	-0.010082	-0.171660	0.071537	-0.239083	0.968360	0.996063	-0.033828	-0.081935	0.052347	0.970410	0.235721
609	625897349													0.038718	-0.051704	-0.100494	0.070718	-0.239555	0.968304	0.996101	-0.034374	-0.081252	0.052749	0.970274	0.236190
610	625914016													0.029388	-0.099165	-0.049117	0.069989	-0.239711	0.968318	0.996136	-0.034832	-0.080622	0.053054	0.970219	0.236347
611	625930683													0.034074	-0.099390	-0.032642	0.069253	-0.239479	0.968428	0.996177	-0.035210	-0.079944	0.053243	0.970263	0.236126
612	625947350													0.046577	-0.081316	-0.075417	0.068640	-0.238975	0.968597	0.996215	-0.035490	-0.079354	0.053339	0.970377	0.235634
613	625964017													0.040550	-0.077228	-0.125875	0.068053	-0.238237	0.968820	0.996255	-0.035688	-0.078756	0.053338	0.970551	0.234916
614	625980684													0.035526	-0.037201	-0.164458	0.067449	-0.237300	0.969092	0.996302	-0.035791	-0.078107	0.053219	0.970777	0.234008
615	625997351													0.046510	0.017978	-0.240602	0.066715	-0.236247	0.969400	0.996364	-0.035816	-0.077299	0.052982	0.971033	0.232999
616	626014018													0.005442	0.016026	-0.284214	0.065717	-0.235201	0.969723	0.996446	-0.035858	-0.076225	0.052700	0.971285	0.232008
617	626030685													-0.032786	-0.001486	-0.222301	0.064571	-0.234134	0.970058	0.996536	-0.035931	-0.075006	0.052417	0.971540	0.231003
618	626047352													-0.030481	-0.044827	-0.095693	0.063553	-0.233087	0.970377	0.996613	-0.036019	-0.073923	0.052182	0.971789	0.230008
619	626064019													0.007320	-0.107373	0.083585	0.062778	-0.232010	0.970685	0.996669	-0.036158	-0.073101	0.052058	0.972041	0.228967
620	626080686													0.038299	-0.191795	0.173788	0.062385	-0.230902	0.970975	0.996693	-0.036333	-0.072678	0.052060	0.972298	0.227872
621	626097353													0.021793	-0.224642	0.229877	0.062512	-0.229639	0.971266	0.996679	-0.036513	-0.072780	0.052177	0.972591	0.226594
622	626114020													0.014231	-0.182791	0.101772	0.063097	-0.228316	0.971540	0.996637	-0.036590	-0.073326	0.052290	0.972899	0.225239
623	626130687													0.002268	-0.122352	-0.140828	0.063830	-0.227021	0.971796	0.996587	-0.036580	-0.074003	0.052348	0.973203	0.223912
624	626147354													-0.100710	-0.083676	-0.336517	0.064427	-0.225828	0.972034	0.996549	-0.036532	-0.074539	0.052343	0.973482	0.222695
625	626164021													-0.129040	-0.059497	-0.465867	0.064631	-0.224771	0.972266	0.996529	-0.036683	-0.074725	0.052461	0.973721	0.221620
626	626180688													-0.106520	-0.095069	-0.420129	0.064261	-0.223683	0.972541	0.996531	-0.037254	-0.074415	0.052876	0.973950	0.220513
627	626197355													-0.077637	-0.179729	-0.299084	0.063527	-0.222487	0.972864	0.996536	-0.038287	-0.073829	0.053674	0.974184	0.219284
628	626214022													-0.002056	-0.263632	-0.140843	0.062769	-0.221110	0.973227	0.996530	-0.039532	-0.073253	0.054670	0.974447	0.217862
629	626230689													0.014321	-0.363527	-0.010282	0.062156	-0.219434	0.973645	0.996517	-0.040700	-0.072788	0.055600	0.974778	0.216140
630	626247356													-0.000990	-0.334065	0.038424	0.061625	-0.217406	0.974134	0.996506	-0.041722	-0.072352	0.056372	0.975189	0.214075
631	626264023													-0.044952	-0.221788	0.019698	0.061111	-0.215099	0.974678	0.996503	-0.042606	-0.071882	0.056989	0.975662	0.211743
632	626280690													-0.079170	-0.042960	-0.064267	0.060705	-0.212772	0.975214	0.996498	-0.043374	-0.071494	0.057511	0.976139	0.209393
633	626297357													-0.111947	0.130765	-0.152522	0.060322	-0.210756	0.975676	0.996493	-0.044067	-0.071128	0.057986	0.976545	0.207359
634	626314024													-0.145099	0.259598	-0.195214	0.059873	-0.209291	0.976019	0.996483	-0.044895	-0.070756	0.058627	0.976822	0.205866
635	626330691													-0.149394	0.340242	-0.238947	0.059371	-0.208495	0.976220	0.996464	-0.045864	-0.070397	0.059451	0.976947	0.205035
636	626347358													-0.102691	0.347486	-0.282687	0.058673	-0.208281	0.976308	0.996450	-0.046928	-0.069895	0.060374	0.976943	0.204788
637	626364025													-0.103749	0.292399	-0.267786	0.057535	-0.208650	0.976296	0.996463	-0.047997	-0.068981	0.061253	0.976812	0.205151
638	626380692													-0.070931	0.183606	-0.202150	0.056058	-0.209422	0.976217	0.996498	-0.049021	-0.067739	0.062041	0.976596	0.205941
639	626397359													-0.050679	0.063701	-0.117666	0.054526	-0.210364	0.976101	0.996547	-0.049846	-0.066411	0.062625	0.976351	0.206920
640	626414026													-0.056101	-0.035840	-0.036442	0.053044	-0.211342	0.975972	0.996598	-0.050538	-0.065109	0.063084	0.976105	0.207942
641	626430693													-0.024862	-0.094322	0.043463	0.051673	-0.212309	0.975835	0.996641	-0.051202	-0.063914	0.063534	0.975860	0.208950
642	626447360													-0.011789	-0.111619	0.031092	0.050631	-0.213323	0.975669	0.996663	-0.051841	-0.063055	0.064031	0.975605	0.209987
643	626464027													-0.010664	-0.092641	-0.034506	0.049804	-0.214299	0.975498	0.996674	-0.052416	-0.062400	0.064504	0.975361	0.210976
644	626480694													-0.037611	-0.082413	-0.015089	0.049088	-0.215274	0.975319	0.996672	-0.053064	-0.061875	0.065075	0.975111	0.211953
645	626497361													-0.031304	-0.051089	-0.054780	0.048736	-0.216254	0.975120	0.996651	-0.053655	-0.061712	0.065665	0.974862	0.212915
646	626514028													-0.055643	-0.046519	-0.131401	0.048513	-0.217273	0.974905	0.996623	-0.054207	-0.061674	0.066246	0.974605	0.213909
647	626530695													-0.049731	-0.065715	-0.170371	0.048219	-0.218136	0.974726	0.996598	-0.054794	-0.061563	0.066838	0.974379	0.214752
648	626547362													0.013038	-0.076076	-0.197681	0.047988	-0.218806	0.974588	0.996574	-0.055314	-0.061489	0.067363	0.974199	0.215402
649	626564029													0.020730	-0.130046	-0.241589	0.047618	-0.219214	0.974514	0.996556	-0.055874	-0.061264	0.067880	0.974076	0.215799
650	626580696													0.029621	-0.203453	-0.199572	0.046885	-0.219285	0.974534	0.996558	-0.056508	-0.060659	0.068371	0.974023	0.215881
651	626597363													0.015618	-0.246391	-0.106370	0.045883	-0.218884	0.974671	0.996578	-0.057119	-0.059741	0.068749	0.974078	0.215515
652	626614030													0.009589	-0.264458	-0.044344	0.044936	-0.217976	0.974919	0.996608	-0.057568	-0.058807	0.068943	0.974255	0.214650
653	626630697													-0.002458	-0.305725	0.016381	0.044112	-0.216553	0.975274	0.996644	-0.057846	-0.057923	0.068959	0.974556	0.213274
654	626647364													-0.013087	-0.253178	0.113436	0.043561	-0.214736	0.975700	0.996667	-0.058081	-0.057280	0.068969	0.974944	0.211490
655	626664031													-0.028968	-0.178833	0.062824	0.043435	-0.212638	0.976165	0.996669	-0.058287	-0.057044	0.069028	0.975391	0.209398
656	626680698													-0.092696	-0.089064	-0.062654	0.043501	-0.210340	0.976660	0.996658	-0.058515	-0.056994	0.069138	0.975875	0.207092
657	626697365													-0.123199	-0.010051	-0.187856	0.043429	-0.207872	0.977191	0.996648	-0.058856	-0.056813	0.069323	0.976384	0.204619
658	626714032													-0.142019	0.024539	-0.261730	0.043172	-0.205335	0.977739	0.996649	-0.059211	-0.056442	0.069482	0.976899	0.202091
659	626730699													-0.152446	0.012030	-0.256378	0.042694	-0.202739	0.978302	0.996660	-0.059586	-0.055843	0.069615	0.977418	0.199518
660	626747366													-0.152899	0.037914	-0.216412	0.042069	-0.200186	0.978854	0.996679	-0.059964	-0.055098	0.069726	0.977921	0.196999
661	626764033													-0.107332	0.071630	-0.146315	0.041454	-0.197698	0.979386	0.996695	-0.060358	-0.054370	0.069862	0.978403	0.194542
662	626780700													-0.098321	0.093390	-0.099116	0.040988	-0.195392	0.979868	0.996701	-0.060759	-0.053808	0.070050	0.978841	0.192257
663	626797367													-0.119973	0.080263	-0.088223	0.040373	-0.193265	0.980316	0.996715	-0.061144	-0.053103	0.070203	0.979239	0.190162
664	626814034													-0.114819	0.091820	-0.111722	0.039356	-0.191356	0.980731	0.996761	-0.061364	-0.051973	0.070127	0.979601	0.188321
665	626830701													-0.107212	0.094960	-0.142613	0.038183	-0.189473	0.981143	0.996826	-0.061425	-0.050655	0.069864	0.979963	0.186526
666	626847368													-0.092634	0.079686	-0.087953	0.036950	-0.187630	0.981545	0.996899	-0.061372	-0.049260	0.069482	0.980321	0.184780
667	626864035													-0.061400	0.000267	0.024304	0.036125	-0.185652	0.981951	0.996945	-0.061393	-0.048284	0.069249	0.980696	0.182867
668	626880702													-0.053302	-0.057750	0.103333	0.035615	-0.183643	0.982348	0.996959	-0.061644	-0.047669	0.069310	0.981058	0.180889
669	626897369													-0.037821	-0.058494	0.083420	0.035445	-0.181619	0.982730	0.996944	-0.062076	-0.047430	0.069618	0.981408	0.178864
670	626914036													-0.073257	0.041705	-0.083797	0.035661	-0.179659	0.983082	0.996916	-0.062411	-0.047569	0.069901	0.981747	0.176879
671	626930703													-0.102337	0.137416	-0.180269	0.035900	-0.177989	0.983377	0.996901	-0.062549	-0.047715	0.070002	0.982043	0.175192
672	626947370													-0.156118	0.221789	-0.221756	0.035985	-0.176824	0.983584	0.996904	-0.062497	-0.047708	0.069906	0.982256	0.174027
673	626964037													-0.122783	0.305020	-0.177515	0.035699	-0.176182	0.983710	0.996929	-0.062378	-0.047351	0.069704	0.982379	0.173414
674	626980704													-0.076866	0.381884	-0.145324	0.035188	-0.176160	0.983732	0.996957	-0.062323	-0.046821	0.069558	0.982387	0.173431
675	626997371													-0.056473	0.378605	-0.136968	0.034577	-0.176785	0.983642	0.996979	-0.062387	-0.046258	0.069545	0.982270	0.174093
676	627014038													-0.052278	0.322282	-0.089731	0.034028	-0.178002	0.983442	0.996998	-0.062424	-0.045796	0.069542	0.982048	0.175343
677	627030705													-0.056455	0.216446	-0.084519	0.033717	-0.179680	0.983147	0.997007	-0.062429	-0.045602	0.069571	0.981742	0.177037
678	627047372													-0.070932	0.141658	-0.118225	0.033655	-0.181635	0.982790	0.997011	-0.062330	-0.045661	0.069551	0.981389	0.178994
679	627064039													-0.051815	0.050100	-0.116290	0.033594	-0.183797	0.982390	0.997010	-0.062276	-0.045745	0.069588	0.980989	0.181155
680	627080706													-0.008668	-0.032579	-0.079414	0.033481	-0.186059	0.981968	0.997006	-0.062302	-0.045798	0.069699	0.980561	0.183416
681	627097373													-0.009088	-0.114523	-0.073053	0.033297	-0.188220	0.981562	0.997003	-0.062367	-0.045780	0.069834	0.980145	0.185580
682	627114040													-0.009615	-0.144195	-0.043297	0.033139	-0.190141	0.981197	0.997002	-0.062386	-0.045762	0.069914	0.979773	0.187503
683	627130707													0.023857	-0.112615	-0.026198	0.033148	-0.191795	0.980875	0.997006	-0.062252	-0.045866	0.069859	0.979459	0.189158
684	627147374													0.009107	-0.068068	-0.057138	0.033224	-0.193252	0.980586	0.997016	-0.061993	-0.045998	0.069679	0.979189	0.190616
685	627164041													-0.028036	-0.011787	-0.092150	0.033239	-0.194641	0.980311	0.997034	-0.061660	-0.046049	0.069409	0.978935	0.192014
686	627180708													-0.083009	0.014561	-0.111627	0.033379	-0.196011	0.980033	0.997047	-0.061320	-0.046223	0.069156	0.978683	0.193386
687	627197375													-0.081669	0.030636	-0.173485	0.033562	-0.197412	0.979746	0.997053	-0.061046	-0.046455	0.068980	0.978418	0.194782
688	627214042													-0.065093	0.000951	-0.156760	0.033643	-0.198837	0.979455	0.997049	-0.060992	-0.046629	0.069010	0.978133	0.196198
689	627230709													-0.085365	-0.067167	-0.116991	0.033754	-0.200181	0.979177	0.997030	-0.061111	-0.046863	0.069220	0.977851	0.197524
690	627247376													-0.057949	-0.145979	-0.051674	0.033959	-0.201323	0.978936	0.997001	-0.061331	-0.047198	0.069541	0.977603	0.198637
691	627264043													-0.047835	-0.201697	-0.033847	0.034311	-0.202155	0.978752	0.996966	-0.061541	-0.047660	0.069868	0.977418	0.199430
692	627280710													-0.031719	-0.245008	-0.066584	0.034694	-0.202587	0.978649	0.996935	-0.061697	-0.048114	0.070127	0.977319	0.199826
693	627297377													-0.065021	-0.287038	-0.080641	0.034964	-0.202690	0.978619	0.996907	-0.061894	-0.048437	0.070389	0.977285	0.199899
694	627314044													-0.097854	-0.348320	-0.141512	0.035141	-0.202372	0.978678	0.996876	-0.062211	-0.048658	0.070732	0.977331	0.199553
695	627330711													-0.060648	-0.366148	-0.163260	0.035267	-0.201653	0.978822	0.996839	-0.062667	-0.048826	0.071186	0.977450	0.198805
696	627347378													-0.005448	-0.334626	-0.204078	0.035543	-0.200596	0.979029	0.996793	-0.063164	-0.049130	0.071695	0.977636	0.197708
697	627364045													-0.012605	-0.227655	-0.206653	0.035661	-0.199240	0.979302	0.996750	-0.063744	-0.049265	0.072240	0.977875	0.196319
698	627380712													0.008547	-0.153905	-0.160924	0.035567	-0.197612	0.979635	0.996711	-0.064411	-0.049180	0.072818	0.978162	0.194671
699	627397379													0.006266	-0.088436	-0.158604	0.035387	-0.195855	0.979994	0.996675	-0.065095	-0.048999	0.073390	0.978470	0.192900
700	627414046													0.002299	-0.084678	-0.118904	0.034998	-0.194022	0.980373	0.996646	-0.065829	-0.048607	0.073968	0.978786	0.191068
701	627430713													-0.051354	-0.119281	-0.140123	0.034630	-0.191800	0.980823	0.996624	-0.066470	-0.048186	0.074437	0.979180	0.188851
702	627447380													-0.066328	-0.170698	-0.109873	0.034008	-0.188892	0.981409	0.996607	-0.067231	-0.047475	0.074949	0.979694	0.185965
703	627464047													-0.073131	-0.134693	0.048102	0.033525	-0.185417	0.982088	0.996568	-0.068212	-0.046898	0.075686	0.980290	0.182494
704	627480714													-0.139895	-0.019544	0.072571	0.033613	-0.181742	0.982772	0.996493	-0.069293	-0.046897	0.076622	0.980902	0.178775
705	627497381													-0.212359	0.134587	0.030258	0.034001	-0.178454	0.983361	0.996398	-0.070430	-0.047233	0.077687	0.981424	0.175416
706	627514048													-0.310483	0.321331	0.011455	0.034505	-0.176098	0.983768	0.996308	-0.071366	-0.047719	0.078611	0.981782	0.172985
707	627530715													-0.349524	0.405950	-0.046651	0.035079	-0.174754	0.983987	0.996236	-0.071984	-0.048300	0.079272	0.981977	0.171571
708	627547382													-0.313894	0.374108	-0.067069	0.035519	-0.174135	0.984081	0.996186	-0.072355	-0.048760	0.079694	0.982060	0.170901
709	627564049													-0.210989	0.282983	-0.196417	0.035940	-0.174039	0.984083	0.996154	-0.072495	-0.049201	0.079904	0.982067	0.170764
710	627580716													-0.090125	0.174846	-0.333442	0.036124	-0.174352	0.984021	0.996144	-0.072500	-0.049415	0.079957	0.982011	0.171061
711	627597383													-0.036332	0.086193	-0.356229	0.035857	-0.174739	0.983962	0.996157	-0.072485	-0.049174	0.079915	0.981943	0.171468
712	627614050													-0.032048	0.068346	-0.337711	0.035041	-0.174878	0.983966	0.996198	-0.072468	-0.048356	0.079762	0.981920	0.171673
713	627630717													-0.049075	0.106058	-0.230743	0.033847	-0.174731	0.984034	0.996260	-0.072427	-0.047129	0.079506	0.981949	0.171626
714	627647384													-0.070561	0.164413	-0.074757	0.032644	-0.174604	0.984097	0.996320	-0.072389	-0.045893	0.079251	0.981974	0.171598
715	627664051													-0.057270	0.226071	0.017488	0.031685	-0.174808	0.984093	0.996368	-0.072334	-0.044929	0.079038	0.981942	0.171881
716	627680718													-0.089743	0.260500	0.049907	0.030858	-0.175577	0.983982	0.996394	-0.072438	-0.044173	0.079034	0.981797	0.172709
717	627697385													-0.054594	0.214559	0.019831	0.030234	-0.176954	0.983755	0.996401	-0.072633	-0.043687	0.079184	0.981535	0.174121
718	627714052													0.015428	0.098854	-0.048512	0.029965	-0.178740	0.983440	0.996394	-0.072790	-0.043589	0.079376	0.981200	0.175915
719	627730719													0.066707	-0.022969	-0.087993	0.029866	-0.180509	0.983120	0.996392	-0.072798	-0.043636	0.079446	0.980876	0.177683
720	627747386													0.117513	-0.091869	-0.066360	0.029684	-0.181908	0.982867	0.996397	-0.072772	-0.043561	0.079449	0.980619	0.179093
721	627764053													0.130788	-0.115116	-0.108320	0.029429	-0.182704	0.982727	0.996411	-0.072705	-0.043355	0.079370	0.980476	0.179909
722	627780720													0.125756	-0.097924	-0.126046	0.028993	-0.183056	0.982675	0.996432	-0.072660	-0.042934	0.079261	0.980414	0.180296
723	627797387													0.048346	-0.053699	-0.130665	0.028524	-0.183131	0.982675	0.996449	-0.072704	-0.042473	0.079222	0.980396	0.180407
724	627814054													-0.043549	-0.017953	-0.131386	0.028051	-0.183140	0.982687	0.996458	-0.072837	-0.042018	0.079272	0.980385	0.180448
725	627830721													-0.063032	-0.027711	-0.092377	0.027609	-0.183327	0.982664	0.996458	-0.073067	-0.041628	0.079432	0.980333	0.180660
726	627847388													-0.048645	-0.036881	-0.128093	0.027342	-0.183680	0.982606	0.996441	-0.073405	-0.041449	0.079742	0.980242	0.181019
727	627864055													-0.020295	-0.090521	-0.111846	0.027165	-0.184116	0.982529	0.996416	-0.073784	-0.041376	0.080112	0.980131	0.181452
728	627880722													-0.013473	-0.099230	-0.138215	0.027256	-0.184453	0.982463	0.996378	-0.074177	-0.041568	0.080544	0.980038	0.181763
729	627897389													0.001568	-0.116750	-0.192161	0.027356	-0.184477	0.982456	0.996350	-0.074467	-0.041725	0.080858	0.980012	0.181767
730	627914056													-0.036273	-0.159610	-0.165240	0.027038	-0.183989	0.982556	0.996345	-0.074716	-0.041409	0.081031	0.980085	0.181296
731	627930723													-0.011830	-0.176430	-0.004188	0.026304	-0.182948	0.982771	0.996359	-0.074960	-0.040622	0.081100	0.980261	0.180311
732	627947390													0.022176	-0.183828	0.109387	0.025689	-0.181435	0.983067	0.996378	-0.075091	-0.039896	0.081058	0.980532	0.178849
733	627964057													0.011970	-0.153209	0.084977	0.025456	-0.179657	0.983400	0.996403	-0.074980	-0.039491	0.080830	0.980868	0.177102
734	627980724													-0.027712	-0.037262	0.008993	0.025632	-0.177611	0.983767	0.996426	-0.074696	-0.039447	0.080489	0.981262	0.175061
735	627997391													-0.072844	0.145894	-0.036032	0.026060	-0.175422	0.984148	0.996436	-0.074449	-0.039656	0.080225	0.981674	0.172857
736	628014058													-0.114665	0.285761	-0.140777	0.026513	-0.173415	0.984492	0.996433	-0.074346	-0.039930	0.080118	0.982039	0.170826
737	628030725													-0.129195	0.356579	-0.232307	0.026672	-0.172053	0.984727	0.996436	-0.074279	-0.039968	0.080021	0.982283	0.169458
738	628047392													-0.132844	0.334375	-0.263650	0.026752	-0.171341	0.984848	0.996452	-0.074071	-0.039954	0.079795	0.982423	0.168752
739	628064059													-0.122192	0.247645	-0.322059	0.026741	-0.171061	0.984897	0.996476	-0.073791	-0.039872	0.079497	0.982493	0.168485
740	628080726													-0.050776	0.146331	-0.298799	0.026539	-0.170913	0.984929	0.996493	-0.073698	-0.039639	0.079362	0.982526	0.168357
741	628097393													-0.018305	0.059367	-0.257941	0.026033	-0.170798	0.984962	0.996495	-0.073922	-0.039157	0.079498	0.982529	0.168275
742	628114060													-0.031864	0.029468	-0.134848	0.025277	-0.170606	0.985015	0.996497	-0.074269	-0.038435	0.079713	0.982536	0.168131
743	628130727													-0.046957	0.006109	-0.001518	0.024408	-0.170391	0.985074	0.996515	-0.074474	-0.037574	0.079765	0.982558	0.167979
744	628147394													-0.051516	-0.038564	0.022945	0.023472	-0.170058	0.985155	0.996568	-0.074265	-0.036564	0.079380	0.982632	0.167731
745	628164061													-0.096896	-0.000924	0.020360	0.022586	-0.169607	0.985253	0.996647	-0.073700	-0.035534	0.078640	0.982752	0.167373
746	628180728													-0.069024	0.065695	0.069548	0.021989	-0.169230	0.985331	0.996711	-0.073182	-0.034812	0.078000	0.982856	0.167064
747	628197395													-0.036917	0.084116	0.086225	0.021938	-0.169040	0.985365	0.996727	-0.073013	-0.034717	0.077813	0.982901	0.166885
748	628214062													-0.029321	0.072621	0.069041	0.022596	-0.168802	0.985391	0.996691	-0.073171	-0.035389	0.078075	0.982930	0.166591
749	628230729													-0.022427	0.023163	-0.094809	0.023439	-0.168536	0.985417	0.996644	-0.073394	-0.036259	0.078435	0.982959	0.166250
750	628247396													0.023597	-0.057792	-0.205542	0.023908	-0.168547	0.985404	0.996625	-0.073411	-0.036736	0.078531	0.982956	0.166223
751	628264063													0.099293	-0.068586	-0.227870	0.024243	-0.168751	0.985361	0.996628	-0.073205	-0.037057	0.078387	0.982936	0.166407
752	628280730													0.121439	0.051241	-0.169141	0.024651	-0.168892	0.985326	0.996631	-0.072974	-0.037442	0.078227	0.982930	0.166524
753	628297397													0.122113	0.152345	-0.121214	0.024802	-0.169052	0.985295	0.996625	-0.072965	-0.037606	0.078249	0.982903	0.166671
754	628314064													0.010397	0.227323	-0.156015	0.024481	-0.169627	0.985204	0.996619	-0.073181	-0.037365	0.078436	0.982788	0.167262
755	628330731													-0.126298	0.263034	-0.134069	0.024013	-0.170784	0.985016	0.996613	-0.073429	-0.037027	0.078653	0.982569	0.168442
756	628347398													-0.183820	0.289901	-0.136148	0.023595	-0.172509	0.984725	0.996607	-0.073633	-0.036779	0.078853	0.982252	0.170186
757	628364065													-0.153445	0.194023	-0.066841	0.023374	-0.174516	0.984377	0.996590	-0.073867	-0.036760	0.079128	0.981880	0.172194
758	628380732													-0.117776	0.045876	-0.030898	0.023509	-0.176495	0.984021	0.996560	-0.074101	-0.037100	0.079465	0.981508	0.174146
759	628397399													-0.138819	-0.088066	0.046313	0.023844	-0.178427	0.983664	0.996525	-0.074313	-0.037635	0.079814	0.981143	0.176035
760	628414066													-0.029517	-0.134031	0.074314	0.024350	-0.180257	0.983318	0.996495	-0.074371	-0.038310	0.080036	0.980804	0.177814
761	628430733													0.032269	-0.136997	-0.002746	0.024968	-0.181743	0.983029	0.996484	-0.074144	-0.039017	0.079977	0.980547	0.179252
762	628447400													-0.008323	-0.134637	-0.123001	0.025323	-0.182725	0.982838	0.996503	-0.073694	-0.039376	0.079624	0.980398	0.180220
763	628464067													-0.027460	-0.104615	-0.252966	0.025525	-0.183253	0.982734	0.996541	-0.073105	-0.039516	0.079084	0.980344	0.180753
764	628480734													-0.050884	-0.001393	-0.310453	0.025567	-0.183640	0.982661	0.996584	-0.072535	-0.039484	0.078528	0.980314	0.181158
765	628497401													-0.054656	0.097434	-0.264345	0.025162	-0.184195	0.982568	0.996621	-0.072248	-0.039065	0.078184	0.980231	0.181755
766	628514068													-0.129476	0.166945	-0.209677	0.024341	-0.184980	0.982441	0.996652	-0.072237	-0.038294	0.078052	0.980084	0.182602
767	628530735													-0.113682	0.186680	-0.117044	0.023370	-0.185912	0.982288	0.996686	-0.072248	-0.037387	0.077919	0.979907	0.183607
768	628547402													-0.099790	0.130270	-0.048536	0.022677	-0.187022	0.982094	0.996722	-0.072085	-0.036742	0.077665	0.979707	0.184775
769	628564069													-0.091035	0.082989	0.008537	0.022319	-0.188234	0.981871	0.996750	-0.071844	-0.036431	0.077399	0.979493	0.186019
770	628580736													-0.135529	0.077854	0.029674	0.022201	-0.189488	0.981632	0.996768	-0.071632	-0.036370	0.077208	0.979267	0.187286
771	628597403													-0.153367	0.089329	-0.013467	0.022227	-0.190864	0.981365	0.996774	-0.071494	-0.036480	0.077125	0.979010	0.188659
772	628614070													-0.195903	0.032620	-0.097867	0.022213	-0.192543	0.981037	0.996775	-0.071416	-0.036586	0.077106	0.978686	0.190335
773	628630737													-0.175270	-0.082603	-0.094825	0.022065	-0.194370	0.980680	0.996778	-0.071390	-0.036577	0.077120	0.978327	0.192168
774	628647404													-0.103379	-0.187916	-0.114244	0.021961	-0.195998	0.980358	0.996780	-0.071348	-0.036593	0.077118	0.978005	0.193800
775	628664071													-0.081095	-0.299878	-0.107041	0.022034	-0.197150	0.980126	0.996774	-0.071346	-0.036759	0.077175	0.977774	0.194942
776	628680738													-0.018334	-0.373813	-0.098373	0.022323	-0.197827	0.979983	0.996749	-0.071495	-0.037138	0.077411	0.977626	0.195588
777	628697405													0.015182	-0.374160	-0.092419	0.022664	-0.198163	0.979907	0.996712	-0.071788	-0.037570	0.077790	0.977537	0.195884
778	628714072													0.012483	-0.299119	-0.076990	0.022837	-0.198160	0.979904	0.996679	-0.072114	-0.037811	0.078158	0.977513	0.195855
779	628730739													-0.014835	-0.212796	-0.097557	0.022847	-0.197646	0.980007	0.996660	-0.072369	-0.037830	0.078399	0.977598	0.195333
780	628747406													-0.047235	-0.119649	-0.123127	0.022726	-0.196685	0.980203	0.996650	-0.072590	-0.037673	0.078563	0.977776	0.194377
781	628764073													-0.052156	-0.096451	-0.059721	0.022604	-0.195640	0.980415	0.996632	-0.072913	-0.037527	0.078827	0.977962	0.193333
782	628780740													-0.058813	-0.118311	-0.055049	0.022716	-0.194888	0.980562	0.996599	-0.073296	-0.037655	0.079210	0.978083	0.192560
783	628797407													-0.044698	-0.102911	-0.032649	0.022914	-0.194265	0.980681	0.996550	-0.073834	-0.037911	0.079772	0.978166	0.191903
784	628814074													-0.062365	-0.033601	-0.086933	0.023387	-0.193430	0.980835	0.996486	-0.074422	-0.038437	0.080430	0.978287	0.191010
785	628830741													-0.051575	-0.032531	-0.187608	0.023809	-0.192248	0.981058	0.996414	-0.075137	-0.038906	0.081193	0.978466	0.189769
786	628847408													-0.098965	-0.091617	-0.245419	0.023906	-0.190921	0.981314	0.996353	-0.075881	-0.039035	0.081915	0.978668	0.188410
787	628864075													-0.082312	-0.120052	-0.217192	0.023840	-0.189626	0.981567	0.996296	-0.076634	-0.039002	0.082617	0.978861	0.187097
788	628880742													-0.051483	-0.055974	-0.134840	0.023624	-0.188466	0.981795	0.996239	-0.077457	-0.038841	0.083367	0.979020	0.185928
789	628897409													-0.041281	0.050462	-0.115451	0.023518	-0.187458	0.981991	0.996173	-0.078316	-0.038807	0.084180	0.979146	0.184899
790	628914076													-0.089601	0.145952	-0.132421	0.023353	-0.186674	0.982144	0.996112	-0.079128	-0.038725	0.084944	0.979230	0.184101
791	628930743													-0.117054	0.266674	-0.169630	0.023253	-0.186159	0.982244	0.996058	-0.079813	-0.038707	0.085601	0.979273	0.183570
792	628947410													-0.118440	0.369508	-0.212669	0.023235	-0.185868	0.982300	0.996014	-0.080339	-0.038761	0.086122	0.979285	0.183260
793	628964077													-0.120203	0.402169	-0.149371	0.022945	-0.186103	0.982262	0.995982	-0.080813	-0.038577	0.086559	0.979201	0.183501
794	628980744													-0.113457	0.395659	-0.014988	0.022471	-0.186998	0.982103	0.995959	-0.081256	-0.038260	0.086956	0.978994	0.184416
795	628997411													-0.118726	0.348832	0.050835	0.022080	-0.188516	0.981822	0.995943	-0.081549	-0.038056	0.087241	0.978678	0.185951
796	629014078													-0.061567	0.304392	0.033744	0.021858	-0.190375	0.981468	0.995939	-0.081612	-0.038011	0.087335	0.978313	0.187818
797	629030745													0.004318	0.214774	-0.012717	0.021775	-0.192249	0.981104	0.995940	-0.081569	-0.038088	0.087351	0.977950	0.189693
798	629047412													-0.012001	0.078804	-0.067586	0.021614	-0.194049	0.980754	0.995946	-0.081504	-0.038075	0.087323	0.977600	0.191501
799	629064079													0.008885	-0.106030	-0.080362	0.021432	-0.195759	0.980418	0.995958	-0.081379	-0.038020	0.087228	0.977270	0.193224
800	629080746													0.047444	-0.309577	-0.102162	0.021233	-0.197167	0.980140	0.995972	-0.081246	-0.037920	0.087109	0.976998	0.194648
801	629097413													0.125918	-0.432600	-0.077785	0.020945	-0.198104	0.979957	0.995977	-0.081279	-0.037719	0.087122	0.976805	0.195604
802	629114080													0.177571	-0.493938	-0.089293	0.020758	-0.198337	0.979914	0.995966	-0.081476	-0.037589	0.087295	0.976742	0.195846
803	629130747													0.189662	-0.491612	-0.087635	0.020762	-0.197670	0.980049	0.995935	-0.081844	-0.037606	0.087645	0.976846	0.195168
804	629147414													0.122322	-0.402633	-0.127777	0.020969	-0.196219	0.980336	0.995886	-0.082356	-0.037786	0.088150	0.977096	0.193685
805	629164081													0.049015	-0.259201	-0.184025	0.021247	-0.194226	0.980727	0.995827	-0.082976	-0.038007	0.088759	0.977441	0.191652
806	629180748													-0.004719	-0.130974	-0.177966	0.021321	-0.191928	0.981177	0.995770	-0.083658	-0.038002	0.089377	0.977837	0.189332
807	629197415													-0.064323	-0.045631	-0.154240	0.021041	-0.189560	0.981644	0.995723	-0.084372	-0.037636	0.089958	0.978237	0.186974
808	629214082													-0.074542	0.022160	-0.148242	0.020596	-0.187144	0.982117	0.995688	-0.085030	-0.037083	0.090449	0.978645	0.184586
809	629230749													-0.084962	0.077719	-0.122601	0.020193	-0.184598	0.982607	0.995663	-0.085562	-0.036536	0.090818	0.979083	0.182070
810	629247416													-0.063977	0.148761	-0.065534	0.019773	-0.182016	0.983097	0.995653	-0.085932	-0.035935	0.091021	0.979533	0.179526
811	629264083													-0.041454	0.156725	-0.030169	0.019319	-0.179534	0.983562	0.995656	-0.086166	-0.035285	0.091085	0.979971	0.177090
812	629280750													-0.073214	0.148272	-0.052325	0.018843	-0.177163	0.984001	0.995671	-0.086263	-0.034597	0.091012	0.980394	0.174771
813	629297417													-0.075077	0.187869	-0.057733	0.018505	-0.174773	0.984435	0.995695	-0.086219	-0.034024	0.090824	0.980827	0.172425
814	629314084													-0.074279	0.258496	-0.083137	0.018353	-0.172451	0.984847	0.995718	-0.086106	-0.033633	0.090601	0.981247	0.170132
815	629330751													-0.091316	0.246460	-0.086026	0.018114	-0.170455	0.985199	0.995740	-0.086029	-0.033192	0.090413	0.981603	0.168170
816	629347418													-0.091225	0.241487	-0.098266	0.017731	-0.168956	0.985464	0.995760	-0.085991	-0.032659	0.090259	0.981865	0.166715
817	629364085													-0.082727	0.210989	-0.108144	0.017317	-0.167992	0.985636	0.995774	-0.086022	-0.032157	0.090188	0.982028	0.165793
818	629380752													-0.050014	0.206080	-0.120160	0.017189	-0.167266	0.985762	0.995776	-0.086066	-0.031967	0.090187	0.982148	0.165080
819	629397419													-0.068229	0.167179	-0.110109	0.017100	-0.166841	0.985836	0.995769	-0.086192	-0.031859	0.090287	0.982209	0.164661
820	629414086													-0.093964	0.119079	-0.056395	0.016923	-0.166653	0.985870	0.995754	-0.086423	-0.031701	0.090485	0.982221	0.164483
821	629430753													-0.062089	0.047155	-0.058234	0.016897	-0.166557	0.985887	0.995736	-0.086634	-0.031701	0.090691	0.982219	0.164383
822	629447420													-0.033418	-0.025916	-0.062495	0.017035	-0.166409	0.985910	0.995721	-0.086749	-0.031847	0.090827	0.982234	0.164219
823	629464087													-0.022459	-0.088003	-0.051604	0.017300	-0.166120	0.985954	0.995711	-0.086776	-0.032092	0.090889	0.982280	0.163906
824	629480754													0.002372	-0.075715	-0.046777	0.017682	-0.165564	0.986041	0.995703	-0.086748	-0.032421	0.090905	0.982376	0.163319
825	629497421													-0.000477	-0.039853	-0.047551	0.018037	-0.164763	0.986168	0.995701	-0.086662	-0.032690	0.090849	0.982519	0.162492
826	629514088													-0.027730	-0.013130	-0.048209	0.018187	-0.163842	0.986319	0.995709	-0.086552	-0.032737	0.090732	0.982682	0.161565
827	629530755													-0.034199	-0.002811	-0.029202	0.018447	-0.162858	0.986477	0.995726	-0.086307	-0.032868	0.090493	0.982867	0.160570
828	629547422													-0.026307	0.020794	-0.080226	0.019016	-0.161775	0.986644	0.995747	-0.085908	-0.033277	0.090144	0.983081	0.159453
829	629564089													-0.009453	0.039070	-0.088053	0.019491	-0.160719	0.986808	0.995763	-0.085590	-0.033608	0.089862	0.983282	0.158370
830	629580756													0.037745	0.062517	-0.088041	0.020021	-0.159782	0.986949	0.995767	-0.085384	-0.034023	0.089706	0.983453	0.157396
831	629597423													-0.033042	0.078580	-0.164961	0.020447	-0.158849	0.987091	0.995772	-0.085202	-0.034338	0.089557	0.983620	0.156435
832	629614090													-0.036175	0.070974	-0.193784	0.020782	-0.157857	0.987243	0.995779	-0.085025	-0.034557	0.089395	0.983795	0.155424
833	629630757													-0.050552	0.091667	-0.303973	0.021063	-0.156889	0.987392	0.995792	-0.084808	-0.034718	0.089185	0.983968	0.154442
834	629647424													-0.103931	0.065487	-0.252031	0.020969	-0.156149	0.987511	0.995816	-0.084611	-0.034524	0.088945	0.984103	0.153722
835	629664091													-0.085603	0.058176	-0.142485	0.020662	-0.155722	0.987585	0.995830	-0.084585	-0.034172	0.088857	0.984173	0.153325
836	629680758													-0.066995	0.072068	-0.043259	0.020336	-0.155614	0.987609	0.995833	-0.084680	-0.033848	0.088898	0.984182	0.153243
837	629697425													-0.073712	0.121667	0.028055	0.020059	-0.155901	0.987569	0.995830	-0.084806	-0.033615	0.088993	0.984125	0.153550
838	629714092													-0.077816	0.208228	0.070768	0.020096	-0.156481	0.987476	0.995830	-0.084780	-0.033701	0.088991	0.984036	0.154125
839	629730759													-0.113493	0.201407	0.001488	0.020499	-0.157354	0.987330	0.995835	-0.084537	-0.034148	0.088839	0.983917	0.154965
840	629747426													-0.131107	0.157689	-0.115824	0.020990	-0.158596	0.987120	0.995846	-0.084182	-0.034701	0.088601	0.983748	0.156170
841	629764093													-0.133723	0.128934	-0.211592	0.021402	-0.160198	0.986853	0.995857	-0.083842	-0.035207	0.088380	0.983518	0.157740
842	629780760													-0.055313	0.123526	-0.232292	0.021689	-0.162076	0.986540	0.995867	-0.083552	-0.035621	0.088201	0.983235	0.159594
843	629797427													-0.041569	0.118853	-0.198686	0.021648	-0.164233	0.986184	0.995883	-0.083308	-0.035734	0.088026	0.982897	0.161753
844	629814094													-0.043560	0.047473	-0.168670	0.021196	-0.166493	0.985815	0.995916	-0.083042	-0.035438	0.087764	0.982540	0.164052
845	629830761													-0.005393	-0.050684	-0.088789	0.020594	-0.168664	0.985458	0.995967	-0.082631	-0.034957	0.087326	0.982204	0.166282
846	629847428													0.024012	-0.149532	-0.032676	0.020163	-0.170657	0.985124	0.996026	-0.082069	-0.034603	0.086754	0.981907	0.168324
847	629864095													0.075130	-0.204309	-0.006967	0.020019	-0.172403	0.984823	0.996076	-0.081490	-0.034514	0.086203	0.981650	0.170096
848	629880762													0.067315	-0.190846	-0.004928	0.019952	-0.173923	0.984557	0.996112	-0.081061	-0.034506	0.085810	0.981417	0.171629
849	629897429													0.045949	-0.097547	-0.058273	0.019933	-0.175273	0.984318	0.996129	-0.080828	-0.034565	0.085618	0.981196	0.172984
850	629914096													-0.028241	-0.008265	-0.105558	0.019933	-0.176434	0.984111	0.996137	-0.080693	-0.034644	0.085523	0.980999	0.174144
851	629930763													-0.068513	0.058943	-0.208831	0.019987	-0.177575	0.983904	0.996142	-0.080576	-0.034778	0.085455	0.980803	0.175279
852	629947430													-0.081557	0.114763	-0.231009	0.020052	-0.178844	0.983673	0.996147	-0.080443	-0.034931	0.085376	0.980583	0.176542
853	629964097													-0.095961	0.153745	-0.200500	0.020057	-0.180327	0.983402	0.996160	-0.080241	-0.035031	0.085226	0.980328	0.178026
854	629980764													-0.070029	0.151169	-0.159680	0.019905	-0.182091	0.983080	0.996172	-0.080095	-0.035006	0.085114	0.980014	0.179800
855	629997431													-0.057772	0.114824	-0.078564	0.019512	-0.184136	0.982707	0.996191	-0.079972	-0.034765	0.084991	0.979642	0.181875
856	630014098													-0.075373	0.017099	0.018691	0.019109	-0.186364	0.982295	0.996212	-0.079806	-0.034521	0.084827	0.979234	0.184133
857	630030765													-0.017166	-0.054526	0.106632	0.018872	-0.188649	0.981863	0.996239	-0.079513	-0.034426	0.084566	0.978820	0.186439
858	630047432													0.015787	-0.083847	0.126080	0.019076	-0.190757	0.981452	0.996262	-0.079096	-0.034737	0.084256	0.978446	0.188535
859	630064099													0.013307	-0.072090	0.048262	0.019746	-0.192678	0.981063	0.996273	-0.078613	-0.035492	0.083963	0.978108	0.190407
