// Start Time: Unknown
// Update Rate: 100.0Hz
//Filter Profile: human (46.1)
// Option Flags: AHS Disabled ICC Disabled
// Firmware Version: 4.0.2
PacketCounter	SampleTimeFine	Year	Month	Day	Second	UTC_Nano	UTC_Year	UTC_Month	UTC_Day	UTC_Hour	UTC_Minute	UTC_Second	UTC_Valid	Acc_X	Acc_Y	Acc_Z	Mat[1][1]	Mat[1][2]	Mat[1][3]	Mat[2][1]	Mat[2][2]	Mat[2][3]	Mat[3][1]	Mat[3][2]	Mat[3][3]
1	615886462													0.042351	-0.048253	0.068851	-0.119908	0.489282	-0.863843	-0.985957	0.043186	0.161319	0.116236	0.871056	0.477233
2	615903129													0.154449	-0.100390	0.075890	-0.119753	0.487995	-0.864592	-0.985856	0.044399	0.161609	0.117251	0.871716	0.475776
3	615919796													0.164028	-0.032399	0.040902	-0.121013	0.486933	-0.865016	-0.985301	0.046927	0.164257	0.120575	0.872178	0.474096
4	615936463													0.078599	0.045402	0.012613	-0.123085	0.487121	-0.864617	-0.984690	0.048419	0.167457	0.123436	0.871991	0.473703
5	615953130													0.000072	-0.039488	0.028477	-0.124777	0.487122	-0.864374	-0.984329	0.048636	0.169502	0.124607	0.871979	0.473419
6	615969797													-0.066644	-0.106883	0.029397	-0.125392	0.487969	-0.863807	-0.984164	0.048777	0.170417	0.125292	0.871497	0.474125
7	615986464													-0.113086	-0.036026	0.001143	-0.125079	0.488715	-0.863431	-0.984158	0.049100	0.170360	0.125652	0.871060	0.474832
8	616003131													-0.144570	0.029593	-0.005252	-0.124421	0.489177	-0.863264	-0.984275	0.049098	0.169683	0.125390	0.870801	0.475376
9	616019798													-0.132936	0.044133	0.041999	-0.123688	0.489760	-0.863039	-0.984449	0.048775	0.168767	0.124750	0.870492	0.476111
10	616036465													-0.140220	0.021232	0.043399	-0.122927	0.489782	-0.863136	-0.984629	0.048544	0.167776	0.124074	0.870493	0.476286
11	616053132													-0.158860	0.050403	0.037582	-0.122101	0.488983	-0.863705	-0.984801	0.048614	0.166742	0.123522	0.870938	0.475615
12	616069799													-0.172637	0.063165	-0.020136	-0.121209	0.487754	-0.864525	-0.984991	0.048724	0.165588	0.122889	0.871620	0.474528
13	616086466													-0.083494	0.085866	-0.067714	-0.120454	0.486309	-0.865445	-0.985190	0.048608	0.164433	0.122032	0.872434	0.473251
14	616103133													-0.034158	0.083707	-0.020212	-0.120150	0.484807	-0.866329	-0.985345	0.048191	0.163624	0.121075	0.873293	0.471912
15	616119800													-0.005736	0.055889	0.035611	-0.120261	0.483232	-0.867193	-0.985435	0.047688	0.163232	0.120233	0.874193	0.470458
16	616136467													-0.055772	0.014474	0.050021	-0.120545	0.481665	-0.868025	-0.985482	0.047249	0.163075	0.119561	0.875081	0.468976
17	616153134													-0.110581	0.018892	0.075118	-0.120628	0.480060	-0.868903	-0.985540	0.047011	0.162794	0.118999	0.875975	0.467447
18	616169801													-0.114315	0.011961	0.075547	-0.120477	0.478629	-0.869712	-0.985629	0.046827	0.162305	0.118410	0.876768	0.466109
19	616186468													-0.070351	0.000114	0.058214	-0.120316	0.477478	-0.870367	-0.985729	0.046519	0.161783	0.117736	0.877411	0.465067
20	616203135													-0.065952	0.039239	0.066011	-0.120114	0.476696	-0.870824	-0.985850	0.046038	0.161182	0.116925	0.877862	0.464421
21	616219802													-0.091647	0.041448	0.050707	-0.119815	0.476313	-0.871074	-0.985990	0.045472	0.160486	0.116051	0.878099	0.464192
22	616236469													-0.105450	0.014863	0.034710	-0.119400	0.475771	-0.871428	-0.986149	0.044944	0.159656	0.115125	0.878420	0.463814
23	616253136													-0.065294	-0.021794	0.002229	-0.118959	0.474797	-0.872018	-0.986312	0.044490	0.158775	0.114182	0.878970	0.463006
24	616269803													-0.056994	0.020294	-0.026458	-0.118635	0.474010	-0.872491	-0.986463	0.043922	0.157994	0.113212	0.879423	0.462383
25	616286470													-0.054292	0.010350	-0.007986	-0.118403	0.473393	-0.872857	-0.986601	0.043282	0.157307	0.112247	0.879787	0.461925
26	616303137													-0.001668	0.042760	0.000975	-0.118227	0.473187	-0.872993	-0.986733	0.042530	0.156684	0.111269	0.879935	0.461881
27	616319804													0.072198	0.031584	0.030098	-0.118234	0.473133	-0.873021	-0.986827	0.041780	0.156290	0.110421	0.880000	0.461960
28	616336471													0.046204	0.021659	0.084938	-0.118453	0.473048	-0.873037	-0.986882	0.041040	0.156137	0.109690	0.880080	0.461982
29	616353138													-0.024736	0.080350	0.126728	-0.118342	0.473574	-0.872767	-0.986982	0.040301	0.155697	0.108908	0.879831	0.462640
30	616369805													0.012569	0.080585	0.017330	-0.117959	0.474716	-0.872199	-0.987155	0.039253	0.154871	0.107756	0.879263	0.463988
31	616386472													0.178476	0.011958	-0.054437	-0.118154	0.475980	-0.871483	-0.987279	0.037726	0.154459	0.106397	0.878646	0.465468
32	616403139													0.245229	0.009855	-0.081981	-0.119122	0.477671	-0.870426	-0.987304	0.035794	0.154760	0.105080	0.877809	0.467342
33	616419806													0.270679	0.112422	0.014936	-0.120839	0.480007	-0.868902	-0.987201	0.033660	0.155885	0.104073	0.876619	0.469796
34	616436473													0.205783	0.047624	0.135189	-0.122840	0.483144	-0.866881	-0.986997	0.031769	0.157566	0.103667	0.874965	0.472959
35	616453140													0.099528	-0.134227	0.188410	-0.124532	0.486845	-0.864565	-0.986724	0.030779	0.159460	0.104243	0.872946	0.476549
36	616469807													0.075909	-0.287165	0.126029	-0.125889	0.491112	-0.861952	-0.986344	0.031048	0.161747	0.106198	0.870543	0.480497
37	616486474													0.170122	-0.230888	0.104445	-0.127480	0.496252	-0.858768	-0.985808	0.031956	0.164805	0.109228	0.867590	0.485136
38	616503141													0.044381	-0.032647	0.108299	-0.129572	0.502036	-0.855085	-0.985170	0.032642	0.168449	0.112479	0.864230	0.490361
39	616519808													-0.141287	0.132533	-0.004192	-0.132165	0.507849	-0.851247	-0.984495	0.032673	0.172345	0.115338	0.860826	0.495656
40	616536475													-0.294066	0.239078	0.002312	-0.135126	0.512753	-0.847835	-0.983820	0.032161	0.176250	0.117640	0.857933	0.500111
41	616553142													-0.301500	0.255484	0.058975	-0.137869	0.516372	-0.845194	-0.983225	0.031535	0.179651	0.119420	0.855784	0.503362
42	616569809													-0.301449	0.137378	0.084596	-0.140168	0.518839	-0.843302	-0.982739	0.030952	0.182387	0.120732	0.854311	0.505545
43	616586476													-0.276484	0.069657	0.055342	-0.142081	0.520390	-0.842026	-0.982337	0.030514	0.184615	0.121765	0.853383	0.506863
44	616603143													-0.213569	0.025596	0.027013	-0.143886	0.521887	-0.840792	-0.981927	0.030264	0.186824	0.122947	0.852478	0.508100
45	616619810													-0.106311	0.000167	-0.103580	-0.146006	0.523747	-0.839268	-0.981402	0.030192	0.189575	0.124628	0.851339	0.509598
46	616636477													-0.045890	-0.031934	-0.309866	-0.148910	0.526325	-0.837142	-0.980735	0.029629	0.193081	0.126427	0.849767	0.511774
47	616653144													0.263687	0.081989	-0.394107	-0.152897	0.529488	-0.834425	-0.979895	0.028280	0.197498	0.128171	0.847846	0.514519
48	616669811													0.642675	0.144007	-0.265834	-0.157693	0.534164	-0.830543	-0.978888	0.026199	0.202710	0.130040	0.844975	0.518755
49	616686478													0.847626	-0.030543	-0.219017	-0.164181	0.540835	-0.824950	-0.977510	0.023013	0.209631	0.132361	0.840814	0.524893
50	616703145													0.732796	-0.039572	-0.114091	-0.172648	0.549320	-0.817582	-0.975626	0.018771	0.218635	0.135447	0.835401	0.532690
51	616719812													0.477987	0.006811	-0.118034	-0.182734	0.559145	-0.808681	-0.973207	0.013883	0.229510	0.139556	0.828954	0.541627
52	616736479													0.461964	-0.025721	-0.009057	-0.193940	0.570196	-0.798288	-0.970319	0.008330	0.241684	0.144456	0.821467	0.551657
53	616753146													0.562049	-0.080078	0.001097	-0.205282	0.582618	-0.786394	-0.967236	0.001868	0.253872	0.149379	0.812744	0.563146
54	616769813													0.524036	-0.032640	0.002694	-0.216860	0.595944	-0.773190	-0.963865	-0.005188	0.266341	0.154713	0.803009	0.575534
55	616786480													0.367814	-0.010226	0.217782	-0.228428	0.610100	-0.758682	-0.960144	-0.012245	0.279237	0.161072	0.792230	0.588581
56	616803147													0.070761	-0.054453	0.401156	-0.239633	0.624504	-0.743351	-0.956178	-0.019143	0.292159	0.168225	0.780787	0.601724
57	616819814													-0.308468	0.091367	0.446426	-0.250263	0.638121	-0.728128	-0.952050	-0.025501	0.304878	0.175981	0.769514	0.613905
58	616836481													-0.520955	-0.053640	0.419823	-0.260139	0.650849	-0.713249	-0.947867	-0.031328	0.317122	0.184054	0.758561	0.625068
59	616853148													-0.587518	-0.086103	0.253692	-0.268846	0.662571	-0.699086	-0.943876	-0.036635	0.328263	0.191886	0.748103	0.635234
60	616869815													-0.642877	-0.159445	0.105876	-0.276105	0.673630	-0.685557	-0.940205	-0.041282	0.338099	0.199453	0.737915	0.644748
61	616886482													-0.661787	-0.075842	0.000621	-0.282187	0.684134	-0.672555	-0.936828	-0.045463	0.346824	0.206698	0.727938	0.653745
62	616903149													-0.627800	-0.126686	-0.240870	-0.287324	0.693977	-0.660183	-0.933655	-0.049032	0.354802	0.213854	0.718326	0.662023
63	616919816													-0.427525	-0.206682	-0.148988	-0.292801	0.702398	-0.648771	-0.930202	-0.052184	0.363319	0.221339	0.709869	0.668652
64	616936483													-0.463539	-0.050869	0.046908	-0.298897	0.709552	-0.638120	-0.926304	-0.054984	0.372744	0.229395	0.702504	0.673695
65	616953150													-0.683292	-0.000383	0.141410	-0.304613	0.716456	-0.627616	-0.922363	-0.057510	0.382019	0.237606	0.695258	0.678351
66	616969817													-0.724755	-0.041724	0.175343	-0.309240	0.723367	-0.617342	-0.918765	-0.059710	0.390264	0.245443	0.687877	0.683069
67	616986484													-0.532847	-0.197106	0.060700	-0.313111	0.729866	-0.607665	-0.915494	-0.061744	0.397565	0.252649	0.680796	0.687521
68	617003151													-0.508135	-0.175715	0.015523	-0.316762	0.735718	-0.598649	-0.912408	-0.063889	0.404264	0.259177	0.674268	0.691513
69	617019818													-0.634659	-0.081255	0.032103	-0.319760	0.741306	-0.590101	-0.909615	-0.065826	0.410204	0.265243	0.667932	0.695351
70	617036485													-0.670779	0.113898	-0.013282	-0.322356	0.746685	-0.581849	-0.907041	-0.067768	0.415552	0.270856	0.661717	0.699119
71	617053152													-0.625113	0.033124	-0.030869	-0.325385	0.751488	-0.573925	-0.904506	-0.070415	0.420607	0.275668	0.655978	0.702637
72	617069819													-0.712325	-0.018497	-0.031262	-0.328683	0.755295	-0.567007	-0.902166	-0.073481	0.425085	0.279401	0.651253	0.705553
73	617086486													-0.872860	0.159093	-0.233866	-0.331283	0.758585	-0.561071	-0.900440	-0.076527	0.428195	0.281885	0.647064	0.708412
74	617103153													-0.735566	0.004714	-0.403445	-0.333931	0.761134	-0.556026	-0.898999	-0.079847	0.430610	0.283355	0.643661	0.710922
75	617119820													-0.537317	-0.087558	-0.265220	-0.337693	0.762572	-0.551767	-0.897179	-0.083490	0.433705	0.284664	0.641493	0.712358
76	617136487													-0.408863	0.065364	-0.028025	-0.342659	0.763359	-0.547602	-0.894958	-0.087965	0.437392	0.285717	0.639957	0.713317
77	617153154													-0.433526	0.081036	0.069562	-0.347472	0.764423	-0.543066	-0.892942	-0.092972	0.440466	0.286212	0.637976	0.714891
78	617169821													-0.433044	-0.093431	0.230745	-0.351588	0.765479	-0.538914	-0.891282	-0.097616	0.442818	0.286361	0.636013	0.716578
79	617186488													-0.524895	-0.172494	0.153612	-0.355447	0.766302	-0.535200	-0.889787	-0.102055	0.444820	0.286246	0.634324	0.718120
80	617203155													-0.476707	-0.047170	0.208614	-0.359055	0.766931	-0.531880	-0.888504	-0.106412	0.446361	0.285729	0.632845	0.719629
81	617219822													-0.505056	-0.080940	0.117163	-0.362061	0.767633	-0.528822	-0.887442	-0.110262	0.447537	0.285236	0.631334	0.721151
82	617236489													-0.400839	-0.071903	0.166214	-0.364589	0.768262	-0.526164	-0.886537	-0.113546	0.448507	0.284828	0.629985	0.722491
83	617253156													-0.338597	-0.161201	0.223928	-0.366264	0.768654	-0.524425	-0.885969	-0.115791	0.449056	0.284445	0.629098	0.723414
84	617269823													-0.423781	-0.171415	0.179094	-0.367221	0.768853	-0.523463	-0.885623	-0.117010	0.449422	0.284289	0.628628	0.723883
85	617286490													-0.401472	-0.038103	0.077942	-0.367270	0.768992	-0.523224	-0.885726	-0.117450	0.449104	0.283904	0.628376	0.724253
86	617303157													-0.257830	-0.148378	0.076287	-0.366494	0.769007	-0.523747	-0.886099	-0.116816	0.448533	0.283743	0.628476	0.724229
87	617319824													-0.229380	-0.080361	0.127432	-0.365702	0.769018	-0.524284	-0.886242	-0.115639	0.448557	0.284321	0.628680	0.723825
88	617336491													-0.168907	-0.064606	0.118208	-0.364623	0.769452	-0.524398	-0.886364	-0.114245	0.448673	0.285322	0.628404	0.723671
89	617353158													-0.103651	0.024673	0.059257	-0.363556	0.770403	-0.523743	-0.886446	-0.113231	0.448768	0.286428	0.627421	0.724087
90	617369825													-0.040734	0.109896	0.020526	-0.362455	0.771693	-0.522605	-0.886569	-0.112545	0.448696	0.287440	0.625958	0.724952
91	617386492													-0.103231	0.205650	0.083325	-0.361062	0.773178	-0.521374	-0.886900	-0.111940	0.448193	0.288171	0.624232	0.726149
92	617403159													-0.215349	0.204979	-0.011155	-0.359220	0.774921	-0.520056	-0.887502	-0.111317	0.447157	0.288620	0.622178	0.727731
93	617419826													-0.285977	0.194890	-0.119600	-0.357414	0.776859	-0.518406	-0.888183	-0.111108	0.445854	0.288767	0.619794	0.729705
94	617436493													-0.191644	0.065860	-0.168464	-0.355803	0.778773	-0.516640	-0.888851	-0.111217	0.444494	0.288700	0.617368	0.731785
95	617453160													-0.152232	0.017123	-0.094982	-0.354790	0.780521	-0.514695	-0.889209	-0.111625	0.443674	0.288844	0.615082	0.733650
96	617469827													-0.173432	0.061214	0.050852	-0.354065	0.782163	-0.512698	-0.889344	-0.112001	0.443308	0.289317	0.612925	0.735268
97	617486494													-0.404060	0.164981	0.052256	-0.353055	0.783876	-0.510774	-0.889622	-0.112223	0.442694	0.289696	0.610692	0.736975
98	617503161													-0.575497	0.104779	0.013163	-0.351784	0.785843	-0.508624	-0.890170	-0.112763	0.441454	0.289560	0.608059	0.739202
99	617519828													-0.546137	-0.125854	0.046058	-0.350565	0.787406	-0.507047	-0.890734	-0.113081	0.440234	0.289305	0.605974	0.741011
100	617536495													-0.517567	-0.155871	0.043339	-0.350052	0.788300	-0.506011	-0.890946	-0.113370	0.439730	0.289273	0.604756	0.742018
101	617553162													-0.494819	-0.188364	0.249974	-0.349317	0.788778	-0.505773	-0.891260	-0.113106	0.439162	0.289195	0.604182	0.742516
102	617569829													-0.539365	-0.112958	0.160321	-0.348066	0.788981	-0.506319	-0.891806	-0.112156	0.438296	0.289020	0.604094	0.742655
103	617586496													-0.956391	-0.098662	0.088602	-0.345939	0.789193	-0.507445	-0.892788	-0.110554	0.436702	0.288542	0.604113	0.742826
104	617603163													-1.339881	-0.155852	0.019028	-0.343185	0.788748	-0.510001	-0.894294	-0.108386	0.434155	0.287162	0.605086	0.742569
105	617619830													-1.454844	-0.070243	-0.123512	-0.339751	0.786911	-0.515112	-0.896707	-0.105815	0.429790	0.283700	0.607926	0.741579
106	617636497													-1.361045	-0.208471	-0.371896	-0.335695	0.783222	-0.523329	-0.899811	-0.102279	0.424121	0.278655	0.613272	0.739086
107	617653164													-0.977447	-0.307716	-0.397054	-0.332517	0.777180	-0.534251	-0.902757	-0.098388	0.418748	0.272879	0.621539	0.734320
108	617669831													-0.534810	-0.332036	-0.218228	-0.331136	0.769387	-0.546253	-0.904925	-0.094935	0.414847	0.267319	0.631689	0.727674
109	617686498													-0.448063	-0.203624	-0.005136	-0.330691	0.761081	-0.558032	-0.906764	-0.092347	0.411402	0.261578	0.642050	0.720659
110	617703165													-0.657937	-0.064805	-0.042400	-0.329286	0.753119	-0.569546	-0.909313	-0.090410	0.406173	0.254404	0.651642	0.714591
111	617719832													-0.868502	-0.127094	-0.038113	-0.326127	0.744954	-0.581966	-0.912887	-0.088293	0.398550	0.245517	0.661247	0.708854
112	617736499													-0.923188	-0.093646	0.164749	-0.321861	0.735666	-0.595987	-0.916844	-0.085124	0.390065	0.236224	0.671974	0.701890
113	617753166													-0.596794	-0.172886	0.124163	-0.317078	0.725554	-0.610764	-0.920834	-0.081387	0.381367	0.226994	0.683335	0.693921
114	617769833													-0.586029	-0.065853	0.189198	-0.310839	0.715240	-0.625947	-0.925281	-0.077126	0.371357	0.217332	0.694610	0.685773
115	617786500													-0.741441	0.213186	0.418827	-0.302340	0.704871	-0.641676	-0.930348	-0.071694	0.359600	0.207467	0.705703	0.677451
116	617803167													-0.776322	-0.083565	0.304310	-0.292286	0.694083	-0.657888	-0.935753	-0.065628	0.346497	0.197322	0.716897	0.668672
117	617819834													-0.588160	-0.188918	0.206342	-0.281778	0.681294	-0.675603	-0.941288	-0.059821	0.332263	0.185954	0.729561	0.658150
118	617836501													-0.826557	-0.140776	-0.046858	-0.271317	0.666698	-0.694190	-0.946804	-0.055193	0.317041	0.173056	0.743281	0.646208
119	617853168													-0.844429	0.111286	-0.099725	-0.260315	0.649675	-0.714254	-0.952324	-0.050859	0.300820	0.159109	0.758509	0.631940
120	617869835													-0.633591	0.038049	-0.174959	-0.250389	0.630122	-0.735018	-0.957187	-0.047220	0.285591	0.145249	0.775059	0.614968
121	617886502													-0.057235	0.065293	-0.020296	-0.241933	0.608780	-0.755549	-0.961335	-0.044828	0.271707	0.131540	0.792071	0.596088
122	617903169													0.395103	-0.033652	0.121311	-0.234169	0.587668	-0.774475	-0.964951	-0.043424	0.258811	0.118464	0.807936	0.577239
123	617919836													0.880494	-0.278724	0.143682	-0.226383	0.567906	-0.791349	-0.968151	-0.041998	0.246821	0.106936	0.822021	0.559326
124	617936503													1.229662	-0.290371	0.116588	-0.219058	0.550181	-0.805800	-0.970802	-0.040155	0.236498	0.097760	0.834079	0.542913
125	617953170													1.136073	-0.284375	-0.064294	-0.213865	0.535144	-0.817241	-0.972596	-0.038539	0.229284	0.091204	0.843881	0.528721
126	617969837													1.301743	-0.149969	-0.129780	-0.212044	0.523764	-0.825051	-0.973462	-0.038839	0.225531	0.086081	0.850978	0.518099
127	617986504													1.364149	-0.018391	-0.317881	-0.213481	0.516217	-0.829425	-0.973558	-0.041750	0.224594	0.081311	0.855439	0.511480
128	618003171													1.589979	-0.064697	-0.366146	-0.218910	0.513083	-0.829954	-0.972685	-0.047436	0.227232	0.077220	0.857027	0.509453
129	618019838													1.755125	-0.305316	-0.245510	-0.227682	0.514539	-0.826687	-0.970833	-0.054449	0.233493	0.075129	0.855737	0.511928
130	618036505													1.447334	-0.372565	0.071565	-0.238381	0.520615	-0.819838	-0.968212	-0.061543	0.242442	0.075764	0.851571	0.518736
131	618053172													0.705531	-0.270889	0.442120	-0.247875	0.531408	-0.810039	-0.965485	-0.066481	0.251829	0.079972	0.844504	0.529545
132	618069839													0.028607	-0.297980	0.651765	-0.254216	0.545872	-0.798372	-0.963190	-0.068294	0.260002	0.087404	0.835081	0.543140
133	618086506													-0.526121	-0.266831	0.584291	-0.257417	0.560684	-0.787001	-0.961504	-0.067573	0.266354	0.096160	0.825268	0.556494
134	618103173													-0.963195	0.018141	0.237628	-0.258176	0.573863	-0.777191	-0.960439	-0.065511	0.270677	0.104417	0.816327	0.568073
135	618119840													-1.201942	0.439641	-0.128200	-0.258065	0.583272	-0.770192	-0.959744	-0.063281	0.273655	0.110877	0.809808	0.576122
136	618136507													-1.193686	0.578358	-0.333560	-0.258222	0.587507	-0.766914	-0.959206	-0.061345	0.275974	0.115090	0.806891	0.579380
137	618153174													-1.030008	0.574146	-0.386013	-0.258526	0.587207	-0.767041	-0.958833	-0.059413	0.277685	0.117487	0.807253	0.578393
138	618169841													-0.788522	0.468155	-0.282098	-0.258877	0.584729	-0.768814	-0.958613	-0.057877	0.278767	0.118507	0.809161	0.575512
139	618186508													-0.465234	0.274729	-0.137877	-0.259550	0.581762	-0.770835	-0.958417	-0.057126	0.279597	0.118624	0.811350	0.572398
140	618203175													-0.128504	0.022376	-0.123035	-0.261242	0.578705	-0.772563	-0.957973	-0.057192	0.281098	0.118488	0.813529	0.569325
141	618219842													0.386989	-0.111747	0.000797	-0.263093	0.576747	-0.773399	-0.957398	-0.057163	0.283057	0.119042	0.814921	0.567215
142	618236509													1.024275	-0.279771	-0.041677	-0.265185	0.577711	-0.771963	-0.956553	-0.057010	0.285930	0.121175	0.814248	0.567729
143	618253176													1.307611	-0.313323	-0.139191	-0.268867	0.582569	-0.767023	-0.955019	-0.057819	0.290852	0.125093	0.810722	0.571910
144	618269843													1.251224	-0.109719	-0.214062	-0.273993	0.591166	-0.758585	-0.952823	-0.059747	0.297589	0.130601	0.804334	0.579646
145	618286510													1.165366	-0.083286	-0.078018	-0.280699	0.602628	-0.747026	-0.949902	-0.062962	0.306139	0.137454	0.795534	0.590111
146	618303177													0.913409	-0.033436	0.244837	-0.287990	0.616497	-0.732798	-0.946450	-0.066627	0.315902	0.145928	0.784533	0.602671
147	618319844													0.491073	-0.055176	0.357512	-0.295701	0.631802	-0.716510	-0.942575	-0.071043	0.326353	0.155288	0.771867	0.616528
148	618336511													0.006801	0.072895	0.338113	-0.303100	0.647776	-0.698939	-0.938664	-0.076381	0.336268	0.164441	0.757992	0.631195
149	618353178													-0.167662	-0.011501	0.240070	-0.309546	0.663738	-0.680906	-0.935061	-0.082382	0.344782	0.172751	0.743414	0.646137
150	618369845													-0.210302	-0.030131	0.293698	-0.315360	0.678616	-0.663347	-0.931647	-0.088438	0.352438	0.180505	0.729150	0.660120
151	618386512													-0.371956	-0.165882	0.355777	-0.320406	0.692126	-0.646762	-0.928347	-0.093602	0.359736	0.188445	0.715681	0.672524
152	618403179													-0.669578	-0.254956	0.289370	-0.324436	0.704042	-0.631717	-0.925308	-0.097605	0.366439	0.196330	0.703419	0.683123
153	618419846													-0.805389	-0.328272	0.236058	-0.327511	0.714013	-0.618806	-0.922637	-0.100512	0.372341	0.203659	0.692880	0.691694
154	618436513													-1.192439	-0.130025	0.195540	-0.329596	0.722443	-0.607818	-0.920407	-0.102482	0.377292	0.210281	0.683793	0.698719
155	618453180													-1.368658	-0.177057	0.006885	-0.331505	0.729439	-0.598351	-0.918379	-0.104250	0.381721	0.216064	0.676055	0.704461
156	618469847													-1.109074	-0.217053	0.083427	-0.333479	0.734230	-0.591353	-0.916571	-0.105692	0.385651	0.220655	0.670624	0.708220
157	618486514													-1.029734	-0.264755	0.022679	-0.334585	0.737632	-0.586474	-0.915308	-0.106315	0.388469	0.224196	0.666780	0.710732
158	618503181													-0.871474	-0.424206	-0.134273	-0.335140	0.739928	-0.583256	-0.914367	-0.106158	0.390722	0.227189	0.664257	0.712144
159	618519848													-0.869706	-0.363698	0.056330	-0.335405	0.741047	-0.581681	-0.913445	-0.104756	0.393248	0.230481	0.663231	0.712042
160	618536515													-1.033483	-0.261379	-0.048659	-0.334675	0.741766	-0.581184	-0.912805	-0.102002	0.395453	0.234052	0.662856	0.711225
161	618553182													-0.845318	-0.317432	-0.013721	-0.333689	0.741537	-0.582044	-0.912369	-0.098726	0.397286	0.237140	0.663609	0.709498
162	618569849													-0.965724	-0.145754	0.088179	-0.331432	0.740171	-0.585064	-0.912561	-0.094044	0.397980	0.239551	0.665810	0.706621
163	618586516													-0.920981	-0.088260	-0.035911	-0.328877	0.737807	-0.589475	-0.912897	-0.088567	0.398466	0.241783	0.669176	0.702669
164	618603183													-0.846965	-0.033002	0.063843	-0.327086	0.734665	-0.594375	-0.912951	-0.083262	0.399485	0.243999	0.673301	0.697947
165	618619850													-0.709862	0.087636	0.284282	-0.325701	0.731123	-0.599482	-0.912899	-0.078185	0.400628	0.246038	0.677751	0.692906
166	618636517													-0.603974	0.128428	0.318743	-0.324094	0.727758	-0.604426	-0.913043	-0.073393	0.401206	0.247620	0.681895	0.688261
167	618653184													-0.601414	0.114477	0.134006	-0.321471	0.724916	-0.609223	-0.913925	-0.069174	0.399944	0.247784	0.685355	0.684757
168	618669851													-0.396529	0.021614	0.089642	-0.318342	0.721817	-0.614523	-0.915328	-0.065388	0.397364	0.246642	0.688988	0.681516
169	618686518													-0.308869	0.175250	-0.008504	-0.314169	0.718594	-0.620419	-0.917242	-0.061188	0.393603	0.244879	0.692732	0.678348
170	618703185													-0.153121	0.137453	-0.000195	-0.309326	0.715030	-0.626936	-0.919367	-0.056346	0.389346	0.243068	0.696819	0.674804
171	618719852													-0.048959	0.107257	0.023942	-0.304144	0.711402	-0.633564	-0.921543	-0.051213	0.384884	0.241360	0.700917	0.671164
172	618736519													0.007219	0.226009	0.336073	-0.298142	0.708003	-0.640189	-0.923936	-0.045636	0.379815	0.239695	0.704733	0.667756
173	618753186													-0.154560	0.292942	0.486816	-0.290459	0.704734	-0.647289	-0.926894	-0.039177	0.373273	0.237700	0.708389	0.664593
174	618769853													-0.388937	0.340708	0.666770	-0.281205	0.701029	-0.655349	-0.930422	-0.031914	0.365098	0.235030	0.712418	0.661227
175	618786520													-0.417819	0.450062	0.137021	-0.271767	0.696574	-0.664024	-0.934056	-0.024805	0.356263	0.231693	0.717056	0.657380
176	618803187													0.061775	0.168732	-0.980599	-0.265203	0.691499	-0.671934	-0.936989	-0.020462	0.348759	0.227417	0.722087	0.653354
177	618819854													0.546815	-0.053185	-0.841517	-0.262079	0.686790	-0.677963	-0.938795	-0.018697	0.343967	0.223557	0.726615	0.649656
178	618836521													0.645667	-0.144696	-0.488501	-0.260274	0.683514	-0.681958	-0.940056	-0.018203	0.340535	0.220346	0.729711	0.647279
179	618853188													0.747078	-0.157951	-0.514906	-0.259670	0.682040	-0.683662	-0.940826	-0.019036	0.338356	0.217758	0.731067	0.646624
180	618869855													0.679333	-0.169748	-0.283049	-0.259405	0.682576	-0.683227	-0.941382	-0.020735	0.336705	0.215660	0.730520	0.647943
181	618886522													0.647272	-0.230794	-0.145069	-0.258446	0.685023	-0.681138	-0.942020	-0.022505	0.334800	0.214017	0.728174	0.651122
182	618903189													0.622855	-0.220939	-0.168681	-0.257132	0.689169	-0.677443	-0.942594	-0.024299	0.333055	0.213070	0.724193	0.655855
183	618919856													0.527615	-0.301383	-0.444430	-0.256730	0.694757	-0.671865	-0.942671	-0.026643	0.332658	0.213217	0.718751	0.661767
184	618936523													0.358752	-0.242617	-0.412625	-0.257583	0.701111	-0.664902	-0.942114	-0.029371	0.334005	0.214646	0.712447	0.668092
185	618953190													0.139199	0.066883	-0.243974	-0.259715	0.708005	-0.656717	-0.941023	-0.032841	0.336745	0.216850	0.705443	0.674778
186	618969857													0.222266	0.285991	-0.098655	-0.263087	0.715107	-0.647617	-0.939455	-0.037119	0.340656	0.219567	0.698029	0.681576
187	618986524													0.327461	0.204392	0.124760	-0.267339	0.722413	-0.637691	-0.937474	-0.041925	0.345521	0.222874	0.690190	0.688451
188	619003191													0.324965	0.063855	0.328111	-0.272306	0.730151	-0.626681	-0.935141	-0.047423	0.351086	0.226627	0.681638	0.695708
189	619019858													0.119554	-0.040502	0.362203	-0.276779	0.738504	-0.614821	-0.932882	-0.053036	0.356257	0.230490	0.672160	0.703616
190	619036525													-0.035866	0.082626	0.404576	-0.280127	0.747313	-0.602538	-0.930868	-0.058104	0.360707	0.234551	0.661927	0.711926
191	619053192													-0.438057	0.171816	0.396133	-0.282659	0.756353	-0.589944	-0.928933	-0.062512	0.364933	0.239139	0.651170	0.720271
192	619069859													-0.765140	-0.047440	0.319242	-0.284538	0.764810	-0.578017	-0.927124	-0.066145	0.368872	0.243884	0.640852	0.727894
193	619086526													-1.365390	-0.127875	-0.020457	-0.284692	0.772174	-0.568065	-0.925949	-0.068119	0.371454	0.248131	0.631749	0.734386
194	619103193													-1.756203	0.153734	-0.542641	-0.284345	0.777937	-0.560324	-0.925582	-0.070412	0.371942	0.249894	0.624385	0.740065
195	619119860													-1.823237	-0.005827	-0.141586	-0.283902	0.780590	-0.556847	-0.925842	-0.072092	0.370972	0.249433	0.620872	0.743170
196	619136527													-1.238727	-0.097659	0.068696	-0.283951	0.779144	-0.558844	-0.926242	-0.072214	0.369946	0.247885	0.622671	0.742181
197	619153194													-0.965761	-0.311497	-0.149658	-0.284198	0.775094	-0.564323	-0.926867	-0.071549	0.368508	0.245251	0.627782	0.738743
198	619169861													-1.387580	-0.060456	-0.421404	-0.283218	0.770405	-0.571195	-0.928335	-0.070686	0.364961	0.240792	0.633624	0.735214
199	619186528													-1.785459	-0.062963	-0.055676	-0.278121	0.764629	-0.581370	-0.931544	-0.067103	0.357384	0.234254	0.640967	0.730948
200	619203195													-1.578918	-0.044767	0.520123	-0.270380	0.756410	-0.595600	-0.935444	-0.060102	0.348327	0.227681	0.651331	0.723830
201	619219862													-0.589052	-0.268411	0.449349	-0.263773	0.745149	-0.612516	-0.938745	-0.052314	0.340618	0.221768	0.664843	0.713304
202	619236529													-0.207024	-0.424664	-0.015257	-0.258591	0.731574	-0.630817	-0.941987	-0.046314	0.332437	0.213987	0.680187	0.701110
203	619253196													-0.301595	0.081058	-0.173017	-0.250938	0.716911	-0.650437	-0.946488	-0.040836	0.320145	0.202954	0.695967	0.688795
204	619269863													-0.241929	-0.260705	-0.663286	-0.241261	0.701954	-0.670114	-0.951267	-0.034406	0.306444	0.192053	0.711390	0.676047
205	619286530													0.444462	-0.522840	-0.370009	-0.234919	0.685968	-0.688666	-0.954793	-0.030072	0.295746	0.182162	0.727010	0.662022
206	619303197													0.404052	0.104004	0.311533	-0.231790	0.671223	-0.704083	-0.957168	-0.028277	0.288150	0.173503	0.740716	0.649027
207	619319864													0.038930	0.112411	0.725124	-0.228699	0.659425	-0.716140	-0.959370	-0.027797	0.280778	0.165245	0.751257	0.638990
208	619336531													-0.100308	-0.324221	0.892550	-0.224475	0.648746	-0.727145	-0.961867	-0.027839	0.272098	0.156280	0.760496	0.630256
209	619353198													-0.394744	-0.407236	0.879663	-0.217363	0.638009	-0.738713	-0.965061	-0.027019	0.260629	0.146324	0.769555	0.621591
210	619369865													-0.786125	-0.282926	0.452459	-0.205440	0.627595	-0.750945	-0.969202	-0.023995	0.245097	0.135803	0.778170	0.613196
211	619386532													-0.644228	-0.444941	-0.262321	-0.191707	0.616360	-0.763772	-0.973394	-0.019887	0.228273	0.125509	0.787213	0.603774
212	619403199													-0.285329	-0.237837	-0.462975	-0.180146	0.602965	-0.777162	-0.976777	-0.016486	0.213625	0.115996	0.797597	0.591932
213	619419866													-0.095004	0.229546	-0.573692	-0.170716	0.587656	-0.790896	-0.979386	-0.013240	0.201564	0.107979	0.809002	0.577803
214	619436533													0.186381	0.332352	-0.744606	-0.164327	0.570397	-0.804763	-0.981182	-0.010664	0.192792	0.101386	0.821300	0.561415
215	619453200													0.614086	0.240080	-0.564102	-0.161452	0.551783	-0.818211	-0.982280	-0.009883	0.187161	0.095186	0.833929	0.543601
216	619469867													0.839921	-0.051874	-0.307742	-0.162002	0.533263	-0.830293	-0.982775	-0.011358	0.184459	0.088935	0.845874	0.525917
217	619486534													1.054487	-0.270834	-0.152853	-0.165484	0.518090	-0.839165	-0.982700	-0.014875	0.184605	0.083160	0.855197	0.511588
218	619503201													1.236196	-0.346814	-0.194147	-0.171784	0.505985	-0.845263	-0.982023	-0.019807	0.187721	0.078242	0.862315	0.500291
219	619519868													1.191798	-0.235313	-0.139647	-0.180307	0.497453	-0.848546	-0.980789	-0.025631	0.193381	0.074448	0.867112	0.492518
220	619536535													1.161379	-0.062084	0.146012	-0.190150	0.492859	-0.849078	-0.979106	-0.031712	0.200862	0.072071	0.869531	0.488591
221	619553202													0.881383	0.114081	0.390781	-0.199928	0.491933	-0.847367	-0.977226	-0.037333	0.208893	0.071126	0.869832	0.488194
222	619569869													0.496603	0.330813	0.639694	-0.207166	0.494047	-0.844393	-0.975762	-0.042151	0.214735	0.070497	0.868413	0.490805
223	619586536													0.300083	0.162649	0.496854	-0.211195	0.498913	-0.840525	-0.975001	-0.046777	0.217219	0.069056	0.865389	0.496320
224	619603203													0.287486	-0.075274	0.523347	-0.213474	0.504623	-0.836531	-0.974638	-0.051143	0.217866	0.067157	0.861824	0.502742
225	619619870													0.076290	0.125733	0.422304	-0.213032	0.512045	-0.832122	-0.974857	-0.054419	0.216086	0.065362	0.857233	0.510763
226	619636537													0.261373	-0.204385	-0.092710	-0.212372	0.520200	-0.827218	-0.975013	-0.056347	0.214882	0.065171	0.852184	0.519168
227	619653204													0.371476	-0.126417	-0.467168	-0.213493	0.528653	-0.821552	-0.974654	-0.057708	0.216145	0.066856	0.846874	0.527574
228	619669871													0.581408	-0.050841	-0.626017	-0.216398	0.537290	-0.815164	-0.973733	-0.058205	0.220128	0.070826	0.841387	0.535772
229	619686538													0.939469	-0.143368	-0.465817	-0.220677	0.545930	-0.808247	-0.972272	-0.057381	0.226703	0.077386	0.835864	0.543455
230	619703205													1.169587	-0.239365	-0.253344	-0.226382	0.557941	-0.798407	-0.970160	-0.056078	0.235893	0.086841	0.827984	0.553987
231	619719872													1.132734	-0.267766	-0.127407	-0.233804	0.572103	-0.786151	-0.967337	-0.055419	0.247360	0.097948	0.818307	0.566374
232	619736539													1.146064	-0.151735	0.228833	-0.242478	0.589378	-0.770609	-0.963960	-0.056730	0.259929	0.109480	0.805863	0.581893
233	619753206													0.883353	-0.052577	0.655390	-0.250501	0.609666	-0.752035	-0.960561	-0.059660	0.271595	0.120716	0.790410	0.600566
234	619769873													0.429672	-0.122104	0.646894	-0.257419	0.631654	-0.731265	-0.957387	-0.064174	0.281586	0.130937	0.772590	0.621257
235	619786540													0.034823	-0.209417	0.600491	-0.263355	0.653349	-0.709774	-0.954440	-0.069449	0.290208	0.140315	0.753865	0.641872
236	619803207													-0.266770	-0.344761	0.498122	-0.268481	0.673436	-0.688768	-0.951552	-0.074149	0.298414	0.149891	0.735517	0.660717
237	619819874													-0.702400	-0.312124	0.516724	-0.273257	0.691529	-0.668669	-0.948528	-0.078023	0.306933	0.160081	0.718122	0.677255
238	619836541													-1.200369	-0.140361	0.493728	-0.276523	0.707880	-0.649954	-0.945818	-0.080697	0.314510	0.170186	0.701707	0.691841
239	619853208													-1.494464	-0.180558	0.379106	-0.277525	0.721479	-0.634388	-0.943840	-0.081523	0.320186	0.179290	0.687620	0.703586
240	619869875													-1.770898	-0.206473	0.317201	-0.277244	0.730637	-0.623943	-0.942392	-0.080281	0.324735	0.187173	0.678030	0.710804
241	619886542													-2.002702	-0.171754	0.338373	-0.274337	0.735243	-0.619804	-0.941994	-0.075873	0.326941	0.193355	0.673544	0.713409
242	619903209													-2.256617	-0.331176	0.070363	-0.270119	0.735732	-0.621076	-0.942232	-0.069288	0.327718	0.198079	0.673720	0.711946
243	619919876													-1.997387	-0.500209	0.019980	-0.265436	0.732136	-0.627312	-0.942842	-0.061148	0.327581	0.201475	0.678408	0.706520
244	619936543													-2.143940	-0.341411	0.100231	-0.258579	0.725999	-0.637230	-0.944239	-0.050762	0.325325	0.203839	0.685820	0.698642
245	619953210													-1.787496	-0.319731	0.240662	-0.250622	0.717692	-0.649697	-0.946008	-0.039056	0.321781	0.205565	0.695264	0.688731
246	619969877													-1.375766	-0.013578	0.493556	-0.241110	0.708136	-0.663633	-0.948124	-0.025891	0.316843	0.207186	0.705601	0.677644
247	619986544													-1.194743	-0.106772	0.240309	-0.230378	0.697815	-0.678219	-0.950535	-0.012149	0.310379	0.208347	0.716175	0.666096
248	620003211													-0.687738	-0.011348	0.208675	-0.220233	0.687303	-0.692179	-0.952786	0.000494	0.303642	0.209036	0.726371	0.654744
249	620019878													-0.328822	0.176058	0.207266	-0.210816	0.676924	-0.705217	-0.954940	0.011570	0.296573	0.208917	0.735962	0.643983
250	620036545													-0.271955	0.138199	0.158760	-0.201644	0.667032	-0.717222	-0.957121	0.021305	0.288905	0.207990	0.744724	0.634134
251	620053212													-0.036927	0.167751	0.329016	-0.192640	0.657366	-0.728533	-0.959087	0.030838	0.281428	0.207468	0.752940	0.624530
252	620069879													0.371706	0.408888	0.334646	-0.184617	0.649500	-0.737609	-0.960662	0.039177	0.274942	0.207472	0.759352	0.616717
253	620086546													0.827470	0.471184	0.055093	-0.177763	0.644727	-0.743456	-0.961888	0.045678	0.269603	0.207780	0.763047	0.612035
254	620103213													1.284744	0.407088	-0.173452	-0.173234	0.642037	-0.746845	-0.962568	0.050126	0.266364	0.208452	0.765033	0.609321
255	620119880													1.877267	0.571461	0.310239	-0.169712	0.641889	-0.747781	-0.962877	0.053626	0.264561	0.209919	0.764920	0.608959
256	620136547													1.659143	0.771245	0.198092	-0.165839	0.644841	-0.746108	-0.963253	0.056176	0.262655	0.211284	0.762249	0.611829
257	620153214													1.774053	0.715344	-0.099567	-0.160029	0.650119	-0.742789	-0.963887	0.059354	0.259613	0.212867	0.757511	0.617143
258	620169881													2.261429	-0.100576	-2.297444	-0.155791	0.656113	-0.738407	-0.964355	0.060840	0.257522	0.213888	0.752206	0.623248
259	620186548													1.852170	-0.364608	-2.559201	-0.155243	0.663464	-0.731925	-0.964097	0.059831	0.258722	0.215445	0.745812	0.630355
260	620203215													1.198836	-0.214114	-1.874128	-0.157896	0.671485	-0.724001	-0.963131	0.057010	0.262922	0.217824	0.738822	0.637726
261	620219882													0.524705	0.094732	-0.864981	-0.162324	0.680223	-0.714806	-0.961675	0.053172	0.268985	0.220978	0.731074	0.645523
262	620236549													0.119767	0.093675	-1.153194	-0.169180	0.689028	-0.704712	-0.959750	0.047464	0.276816	0.224182	0.723179	0.653264
263	620253216													0.304818	0.278132	-0.983965	-0.179880	0.696462	-0.694683	-0.957140	0.039043	0.286983	0.226995	0.716531	0.659588
264	620269883													0.071357	0.730503	-0.043691	-0.192199	0.704100	-0.683595	-0.954258	0.028475	0.297627	0.229025	0.709529	0.666420
265	620286550													0.011811	0.695288	0.836564	-0.203286	0.712260	-0.671834	-0.951423	0.018350	0.307338	0.231233	0.701676	0.673930
266	620303217													-0.015330	0.205215	1.267658	-0.211872	0.721374	-0.659340	-0.949037	0.009202	0.315031	0.233322	0.692484	0.682661
267	620319884													-0.140421	-0.098155	1.470036	-0.217010	0.731626	-0.646243	-0.947561	0.001218	0.319572	0.234594	0.681705	0.692996
268	620336551													-0.185983	-0.114177	1.131497	-0.218355	0.743398	-0.632203	-0.947119	-0.005344	0.320839	0.235132	0.668828	0.705253
269	620353218													-0.636945	-0.097050	0.345572	-0.217349	0.756326	-0.617034	-0.947533	-0.011686	0.319443	0.234392	0.654091	0.719184
270	620369885													-1.081321	0.389632	-0.036413	-0.216154	0.769233	-0.601296	-0.948335	-0.018919	0.316705	0.232244	0.638688	0.733581
271	620386552													-1.705843	-0.167104	0.088378	-0.213420	0.779800	-0.588526	-0.949393	-0.023448	0.313213	0.230444	0.625589	0.745342
272	620403219													-2.121866	-0.187979	0.139104	-0.209885	0.785787	-0.581796	-0.950409	-0.024293	0.310052	0.229502	0.618019	0.751918
273	620419886													-2.404859	0.015334	-0.093327	-0.205880	0.786952	-0.581653	-0.951711	-0.022698	0.306155	0.227727	0.616596	0.753624
274	620436553													-2.620570	0.167876	-0.515263	-0.200809	0.784128	-0.587213	-0.953859	-0.019917	0.299595	0.223225	0.620279	0.751947
275	620453220													-1.822049	-0.348069	-0.777415	-0.196279	0.777474	-0.597502	-0.956711	-0.018302	0.290465	0.214893	0.628648	0.747410
276	620469887													-0.697590	-0.661875	-0.334906	-0.194814	0.765893	-0.612744	-0.958735	-0.016813	0.283803	0.207061	0.642748	0.737564
277	620486554													-0.331174	-0.678045	0.028150	-0.194955	0.751021	-0.630841	-0.959700	-0.013336	0.280708	0.202405	0.660144	0.723355
278	620503221													-0.336462	-0.570412	0.701201	-0.195997	0.735171	-0.648929	-0.960087	-0.009204	0.279550	0.199544	0.677820	0.707632
279	620519888													-0.436992	-0.477296	1.387008	-0.196779	0.719116	-0.666446	-0.960328	-0.004368	0.278839	0.197607	0.694876	0.691447
280	620536555													-0.865102	-0.352194	1.055389	-0.190267	0.703493	-0.684760	-0.962460	0.003862	0.271397	0.193571	0.710692	0.676349
281	620553222													-1.161429	-0.633030	-0.302550	-0.177378	0.687843	-0.703853	-0.966163	0.014376	0.257532	0.187260	0.725718	0.662018
282	620569889													-0.376982	-0.288401	-0.378592	-0.167879	0.669000	-0.724055	-0.969318	0.021755	0.244847	0.179555	0.742944	0.644821
283	620586556													-0.561404	0.399753	-0.312456	-0.160340	0.647835	-0.744715	-0.972094	0.027254	0.233004	0.171245	0.761293	0.625386
284	620603223													-0.722463	0.644830	-0.275473	-0.152593	0.625934	-0.764802	-0.975180	0.030265	0.219337	0.160437	0.779289	0.605780
285	620619890													-0.370534	0.647004	-0.184679	-0.142907	0.602279	-0.785390	-0.978775	0.031773	0.202459	0.146891	0.797653	0.584955
286	620636557													-0.051032	0.369702	-0.677721	-0.130478	0.576424	-0.806666	-0.982661	0.032916	0.182466	0.131730	0.816487	0.562135
287	620653224													0.619036	0.397871	-0.827667	-0.118591	0.546507	-0.829015	-0.986153	0.032650	0.162593	0.115925	0.836818	0.535068
288	620669891													1.409155	0.515521	-1.133572	-0.110946	0.516679	-0.848960	-0.988727	0.029045	0.146888	0.100552	0.855686	0.507632
289	620686558													2.875719	0.164572	-1.011849	-0.109496	0.490310	-0.864643	-0.990280	0.021252	0.137457	0.085771	0.871289	0.483217
290	620703225													3.991988	-0.539209	-0.647527	-0.114630	0.471449	-0.874412	-0.990741	0.010200	0.135379	0.072743	0.881834	0.465915
291	620719892													4.437278	-1.299659	-0.035617	-0.126230	0.465177	-0.876172	-0.989981	-0.002742	0.141171	0.063267	0.885214	0.460862
292	620736559													3.919684	-1.587215	0.652894	-0.141805	0.474537	-0.868738	-0.988138	-0.015598	0.152775	0.058947	0.880097	0.471120
293	620753226													2.453741	-1.019947	1.027287	-0.157057	0.497179	-0.853315	-0.985779	-0.026630	0.165922	0.059769	0.867239	0.494291
294	620769893													0.876065	-0.196112	1.102853	-0.169523	0.526791	-0.832919	-0.983399	-0.034922	0.178063	0.064714	0.849277	0.523966
295	620786560													-0.475663	0.409142	1.120061	-0.178229	0.556660	-0.811397	-0.981348	-0.040182	0.187993	0.072045	0.829768	0.553439
296	620803227													-1.343343	0.483513	0.715099	-0.182946	0.582474	-0.791994	-0.979847	-0.042320	0.195215	0.080191	0.811747	0.578478
297	620819894													-1.570821	0.427167	0.021599	-0.185619	0.601609	-0.776925	-0.978632	-0.042010	0.201280	0.088454	0.797686	0.596551
298	620836561													-1.362968	0.497372	-0.487592	-0.187905	0.614231	-0.766428	-0.977473	-0.040581	0.207124	0.096120	0.788083	0.608019
299	620853228													-0.890873	0.433921	-0.815862	-0.190645	0.621800	-0.759618	-0.976164	-0.038323	0.213622	0.103720	0.782238	0.614285
300	620869895													-0.166006	0.257566	-0.734235	-0.195495	0.625353	-0.755457	-0.974377	-0.036486	0.221944	0.111230	0.779489	0.616462
301	620886562													0.109847	0.267525	-0.367206	-0.201704	0.627471	-0.752061	-0.972268	-0.035481	0.231161	0.118363	0.777831	0.617227
302	620903229													0.421602	0.158639	0.113392	-0.208704	0.630053	-0.747981	-0.969881	-0.035121	0.241036	0.125595	0.775757	0.618407
303	620919896													0.878318	-0.211165	0.482726	-0.216806	0.635092	-0.741386	-0.967074	-0.036044	0.251928	0.133275	0.771595	0.621996
304	620936563													1.029627	-0.180991	0.711402	-0.224870	0.644273	-0.730989	-0.964102	-0.038392	0.262743	0.141214	0.763831	0.629778
305	620953230													0.990577	-0.260051	0.729892	-0.231526	0.657826	-0.716701	-0.961362	-0.041932	0.272074	0.148924	0.752002	0.642117
306	620969897													0.949427	-0.310032	0.711615	-0.236099	0.674937	-0.699083	-0.959056	-0.046038	0.279451	0.156427	0.736438	0.658171
307	620986564													0.575579	-0.292418	0.542550	-0.239743	0.693589	-0.679307	-0.956853	-0.050481	0.286153	0.164180	0.718600	0.675765
308	621003231													-0.078170	0.086564	0.404254	-0.243137	0.712083	-0.658652	-0.954590	-0.055131	0.292777	0.172169	0.699928	0.693151
309	621019898													-0.753057	0.347896	0.255434	-0.246031	0.729431	-0.638278	-0.952392	-0.059603	0.298995	0.180053	0.681453	0.709368
310	621036565													-1.161091	0.286206	0.181800	-0.248105	0.744216	-0.620150	-0.950512	-0.063442	0.304141	0.187003	0.664919	0.723127
311	621053232													-1.442337	0.235938	0.030017	-0.249174	0.755369	-0.606078	-0.949238	-0.066429	0.307464	0.191987	0.651924	0.733577
312	621069899													-1.554865	0.044934	-0.240905	-0.249967	0.762653	-0.596554	-0.948425	-0.068808	0.309442	0.194950	0.643137	0.740519
313	621086566													-1.393853	-0.250112	-0.310618	-0.250741	0.766795	-0.590893	-0.947791	-0.070219	0.311065	0.197031	0.638040	0.744368
314	621103233													-0.879778	-0.380424	0.152905	-0.252109	0.768295	-0.588357	-0.946962	-0.070677	0.313478	0.199260	0.636182	0.745364
315	621119900													-0.805145	-0.243199	0.571265	-0.252629	0.768791	-0.587486	-0.946261	-0.069604	0.315824	0.201911	0.635701	0.745061
316	621136567													-0.927485	-0.505878	0.501074	-0.250844	0.769252	-0.587646	-0.946397	-0.067268	0.315924	0.203495	0.635394	0.744892
317	621153234													-1.025478	-0.602246	0.258456	-0.247658	0.768733	-0.589674	-0.947093	-0.063838	0.314548	0.204160	0.636376	0.743871
318	621169901													-1.274898	-0.462962	0.136136	-0.242826	0.766863	-0.594101	-0.948402	-0.058952	0.311543	0.203887	0.639097	0.741610
319	621186568													-1.291390	-0.651309	0.029284	-0.237046	0.763392	-0.600868	-0.949928	-0.052522	0.308023	0.203583	0.643797	0.737617
320	621203235													-0.887188	-0.379639	0.207711	-0.232668	0.758379	-0.608874	-0.950841	-0.045820	0.306271	0.204371	0.650202	0.731758
321	621219902													-0.802291	-0.227754	0.263296	-0.228968	0.753215	-0.616637	-0.951456	-0.039320	0.305263	0.205683	0.656598	0.725654
322	621236569													-0.827520	-0.214489	0.237902	-0.224555	0.748237	-0.624273	-0.952458	-0.033159	0.302861	0.205912	0.662602	0.720110
323	621253236													-0.464260	-0.247152	0.059649	-0.220360	0.742615	-0.632427	-0.953533	-0.027428	0.300039	0.205467	0.669157	0.714152
324	621269903													-0.176000	-0.146038	0.037395	-0.217152	0.736959	-0.640106	-0.954395	-0.022657	0.297687	0.204881	0.675557	0.708270
325	621286570													-0.004309	-0.097503	0.140888	-0.214729	0.731866	-0.646733	-0.954941	-0.018414	0.296223	0.204887	0.681200	0.702843
326	621303237													0.185797	0.111571	0.250658	-0.212938	0.727340	-0.652406	-0.955134	-0.014277	0.295829	0.205854	0.686129	0.697747
327	621319904													0.212357	0.120584	0.260506	-0.211250	0.723853	-0.656819	-0.955275	-0.010630	0.295527	0.206936	0.689873	0.693724
328	621336571													0.403291	0.176180	0.191251	-0.209922	0.720819	-0.660570	-0.955305	-0.007383	0.295529	0.208146	0.693084	0.690152
329	621353238													0.430983	0.128635	0.119491	-0.208248	0.718257	-0.663882	-0.955097	-0.003069	0.296276	0.210765	0.695771	0.686645
330	621369905													0.462017	0.495730	0.064072	-0.206977	0.716308	-0.666381	-0.954458	0.001757	0.298342	0.214875	0.697782	0.683322
331	621386572													0.598255	0.801660	0.491624	-0.205764	0.714577	-0.668612	-0.953583	0.007096	0.301047	0.219866	0.699521	0.679948
332	621403239													0.910448	0.892799	0.033805	-0.205492	0.713644	-0.669690	-0.952577	0.011075	0.304097	0.224434	0.700421	0.677525
333	621419906													1.142904	0.423426	0.052766	-0.203854	0.714023	-0.669787	-0.952023	0.014923	0.305663	0.228246	0.699963	0.676724
334	621436573													1.347776	0.273195	-0.865840	-0.201851	0.715966	-0.668318	-0.951714	0.017761	0.306472	0.231294	0.697910	0.677809
335	621453240													1.163543	0.017111	-1.518693	-0.200073	0.720112	-0.664387	-0.951366	0.019340	0.307456	0.234252	0.693589	0.681220
336	621469907													1.051018	-0.125670	-1.510583	-0.199949	0.726022	-0.657961	-0.950642	0.018872	0.309716	0.237278	0.687412	0.686414
337	621486574													0.307859	0.120051	-0.761711	-0.200323	0.732836	-0.650248	-0.949874	0.017324	0.312154	0.240023	0.680185	0.692631
338	621503241													-0.287371	0.298488	-0.395473	-0.200418	0.739023	-0.643178	-0.949259	0.015924	0.314092	0.242364	0.673492	0.698333
339	621519908													-0.467116	0.213349	-0.714944	-0.201834	0.743678	-0.637344	-0.948504	0.013791	0.316464	0.244136	0.668396	0.702598
340	621536575													-0.264153	0.262057	-0.816272	-0.205217	0.747327	-0.631972	-0.947499	0.010083	0.319599	0.245217	0.664380	0.706022
341	621553242													-0.051307	0.328738	-0.411973	-0.210167	0.750540	-0.626514	-0.946290	0.004878	0.323281	0.245692	0.660807	0.709204
342	621569909													0.207824	0.382447	0.312104	-0.215640	0.753812	-0.620698	-0.944935	-0.000846	0.327258	0.246166	0.657090	0.712486
343	621586576													0.306083	0.164716	0.961094	-0.219570	0.758151	-0.614000	-0.943757	-0.005588	0.330593	0.247209	0.652055	0.716737
344	621603243													0.399785	-0.303853	1.155575	-0.221433	0.763907	-0.606147	-0.942858	-0.009018	0.333072	0.248970	0.645264	0.722253
345	621619910													0.745133	-0.382126	1.027605	-0.222021	0.770838	-0.597089	-0.942188	-0.011985	0.334870	0.250975	0.636918	0.728935
346	621636577													0.229240	-0.035673	0.669749	-0.220725	0.779170	-0.586664	-0.941929	-0.014213	0.335512	0.253083	0.626652	0.737060
347	621653244													-0.464456	0.192936	0.277473	-0.218294	0.788107	-0.575530	-0.941794	-0.015619	0.335827	0.255679	0.615340	0.745644
348	621669911													-1.098151	0.369539	-0.065484	-0.215764	0.795790	-0.565830	-0.941650	-0.016263	0.336201	0.258343	0.605354	0.752865
349	621686578													-1.512346	0.172169	-0.199867	-0.213253	0.800970	-0.559437	-0.941756	-0.016120	0.335910	0.260036	0.598487	0.757756
350	621703245													-1.879015	-0.050204	-0.225763	-0.210232	0.802921	-0.557782	-0.942400	-0.014607	0.334170	0.260165	0.595906	0.759743
351	621719912													-2.221968	-0.035498	-0.209227	-0.204907	0.801708	-0.561495	-0.944345	-0.011101	0.328770	0.257345	0.597612	0.759364
352	621736579													-1.833137	-0.183542	-0.444382	-0.197209	0.797492	-0.570189	-0.947445	-0.005589	0.319871	0.251908	0.603304	0.756682
353	621753246													-1.050968	-0.378337	-0.586087	-0.190418	0.789965	-0.582834	-0.950381	0.000434	0.311088	0.246002	0.613152	0.750685
354	621769913													-0.289386	-0.812386	-0.391005	-0.188232	0.779822	-0.597031	-0.952100	0.004272	0.305757	0.240987	0.625987	0.741664
355	621786580													-0.678152	-0.007235	0.503693	-0.182969	0.769921	-0.611346	-0.954620	0.009504	0.297676	0.234998	0.638068	0.733243
356	621803247													-0.680290	-0.739041	-0.597858	-0.172259	0.761845	-0.624435	-0.958679	0.016041	0.284036	0.226408	0.647561	0.727602
357	621819914													0.128565	-0.502695	0.013099	-0.168230	0.751912	-0.637438	-0.961215	0.018240	0.275196	0.218550	0.659011	0.719680
358	621836581													0.012501	-0.267169	0.872850	-0.167616	0.740549	-0.650763	-0.962463	0.020012	0.270673	0.213470	0.671704	0.709397
359	621853248													-0.713703	0.182280	0.651357	-0.166117	0.729697	-0.663285	-0.964163	0.020919	0.264484	0.206869	0.683450	0.700072
360	621869915													-1.571540	1.106694	0.772884	-0.157533	0.720190	-0.675655	-0.967809	0.023401	0.250594	0.196286	0.693382	0.693321
361	621886582													-1.245558	0.013530	-0.277143	-0.144212	0.709736	-0.689549	-0.972727	0.026256	0.230461	0.181671	0.703979	0.686593
362	621903249													-0.068512	-0.378719	-0.616645	-0.134124	0.693262	-0.708095	-0.977159	0.026334	0.210872	0.164837	0.720205	0.673895
363	621919916													0.259133	-0.422467	-0.674657	-0.126743	0.671891	-0.729725	-0.980543	0.026314	0.194535	0.149908	0.740183	0.655482
364	621936583													0.334271	0.210491	-0.545877	-0.123162	0.648708	-0.751006	-0.982784	0.025291	0.183018	0.137719	0.760617	0.634425
365	621953250													0.301982	0.460042	-0.153727	-0.123394	0.626156	-0.769872	-0.984246	0.021768	0.175458	0.126622	0.779394	0.613605
366	621969917													0.345323	0.652906	0.480836	-0.123900	0.605028	-0.786505	-0.985691	0.016247	0.167777	0.114288	0.796039	0.594357
367	621986584													0.841302	0.007091	0.556179	-0.123634	0.584590	-0.801854	-0.987227	0.009369	0.159046	0.100489	0.811275	0.575965
368	622003251													1.337987	-0.594865	0.541238	-0.123248	0.564035	-0.816502	-0.988595	0.001970	0.150586	0.086544	0.825749	0.557359
369	622019918													1.817441	-0.753615	0.259151	-0.124054	0.547052	-0.827855	-0.989430	-0.005064	0.144920	0.075086	0.837083	0.541899
370	622036585													1.746688	-0.617518	0.012368	-0.127023	0.535917	-0.834660	-0.989580	-0.010951	0.143568	0.067800	0.844199	0.531724
371	622053252													1.280795	-0.489036	0.083002	-0.132141	0.529889	-0.837709	-0.989153	-0.015801	0.146034	0.064145	0.847920	0.526229
372	622069919													0.519416	-0.151952	0.407128	-0.137566	0.526563	-0.838932	-0.988562	-0.020136	0.149463	0.061808	0.849898	0.523310
373	622086586													0.186263	0.108603	0.388479	-0.140218	0.525560	-0.839122	-0.988321	-0.023222	0.150605	0.059666	0.850440	0.522678
374	622103253													0.238551	0.006287	-0.100719	-0.140893	0.525856	-0.838823	-0.988264	-0.024193	0.150827	0.059020	0.850229	0.523094
375	622119920													0.277044	0.073747	-0.356257	-0.141105	0.526185	-0.838582	-0.988132	-0.022917	0.151890	0.060704	0.850062	0.523173
376	622136587													0.237400	0.136703	-0.327078	-0.141352	0.525457	-0.838996	-0.987870	-0.019837	0.154011	0.064283	0.850589	0.521887
377	622153254													0.365920	0.217341	-0.138609	-0.141323	0.524057	-0.839876	-0.987591	-0.015928	0.156240	0.068501	0.851534	0.519805
378	622169921													0.508191	0.068666	0.134898	-0.140559	0.523499	-0.840352	-0.987370	-0.011450	0.158017	0.073099	0.851949	0.518497
379	622186588													0.532221	0.139559	0.210022	-0.138521	0.525004	-0.839751	-0.987261	-0.006183	0.158988	0.078277	0.851077	0.519173
380	622203255													0.743987	0.082720	-0.002827	-0.135964	0.529703	-0.837215	-0.987187	-0.001197	0.159563	0.083519	0.848182	0.523079
381	622219922													1.015059	-0.138957	-0.293762	-0.134610	0.537057	-0.832737	-0.986896	0.002793	0.161331	0.088970	0.843542	0.529643
382	622236589													1.023821	-0.098867	-0.379159	-0.134899	0.547889	-0.825603	-0.986346	0.005186	0.164605	0.094466	0.836535	0.539708
383	622253256													0.917215	0.056015	-0.332646	-0.136220	0.562763	-0.815317	-0.985685	0.005540	0.168508	0.099347	0.826600	0.553952
384	622269923													0.819700	0.240349	-0.183858	-0.137709	0.580969	-0.802191	-0.985150	0.003508	0.171658	0.102542	0.813918	0.571859
385	622286590													0.715620	0.087705	-0.064064	-0.139971	0.600296	-0.787434	-0.984650	-0.000642	0.174539	0.104269	0.799778	0.591171
386	622303257													0.458666	-0.061900	0.086623	-0.143048	0.619467	-0.771879	-0.984056	-0.005735	0.177767	0.105694	0.785001	0.610411
387	622319924													0.206445	-0.099943	0.314622	-0.146948	0.638162	-0.755748	-0.983298	-0.011300	0.181651	0.107383	0.769819	0.629164
388	622336591													-0.275329	-0.099137	0.302161	-0.151021	0.655268	-0.740146	-0.982435	-0.016472	0.185875	0.109606	0.755217	0.646246
389	622353258													-0.823583	-0.400984	0.246937	-0.154501	0.668114	-0.727842	-0.981570	-0.019939	0.190059	0.112469	0.743792	0.658881
390	622369925													-1.009085	-0.435997	0.198318	-0.157739	0.676360	-0.719483	-0.980688	-0.021986	0.194338	0.115624	0.736243	0.666766
391	622386592													-1.317140	-0.559685	0.228383	-0.159169	0.681255	-0.714533	-0.980072	-0.021909	0.197431	0.118846	0.731719	0.671166
392	622403259													-1.323711	-0.705970	0.240161	-0.159687	0.682173	-0.713541	-0.979595	-0.020147	0.199968	0.122038	0.730913	0.671470
393	622419926													-1.498730	-0.552482	0.135185	-0.158255	0.680099	-0.715836	-0.979480	-0.016500	0.200865	0.124797	0.732935	0.668755
394	622436593													-1.259259	-0.652449	0.035559	-0.156938	0.675745	-0.720236	-0.979398	-0.012647	0.201542	0.127082	0.737027	0.663808
395	622453260													-1.285293	-0.564803	0.299357	-0.155879	0.669305	-0.726453	-0.979211	-0.008063	0.202685	0.129800	0.742944	0.656647
396	622469927													-1.659472	-0.319965	0.420813	-0.152479	0.661982	-0.733846	-0.979401	-0.001758	0.201915	0.132374	0.749518	0.648614
397	622486594													-1.343641	-0.294300	0.559595	-0.147640	0.652577	-0.743200	-0.979889	0.005477	0.199468	0.134238	0.757703	0.638644
398	622503261													-1.086996	-0.109024	0.183872	-0.143146	0.640950	-0.754117	-0.980283	0.013048	0.197166	0.136213	0.767472	0.626444
399	622519928													-0.868425	-0.050117	0.097556	-0.140296	0.628361	-0.765166	-0.980426	0.019652	0.195903	0.138135	0.777673	0.613305
400	622536595													-0.568514	0.276963	0.065187	-0.136500	0.616474	-0.775453	-0.980826	0.025808	0.193168	0.139096	0.786952	0.601132
401	622553262													0.020507	0.491171	-0.480510	-0.134214	0.604562	-0.785170	-0.981143	0.030140	0.190920	0.139088	0.795988	0.589116
402	622569929													0.369742	0.466894	-0.300474	-0.134671	0.593527	-0.793467	-0.981168	0.032023	0.190483	0.138466	0.804177	0.578037
403	622586596													0.611018	0.581378	-0.192278	-0.135596	0.584458	-0.800014	-0.981284	0.032211	0.189852	0.136730	0.810784	0.569152
404	622603263													0.888243	0.406727	-0.236091	-0.136773	0.577091	-0.805145	-0.981443	0.031333	0.189179	0.134401	0.816078	0.562096
405	622619930													1.346378	0.263641	-0.349067	-0.138403	0.571473	-0.808865	-0.981473	0.030120	0.189217	0.132496	0.820068	0.556717
406	622636597													1.753385	0.241384	-0.376933	-0.141348	0.567599	-0.811081	-0.981100	0.029053	0.191308	0.132150	0.822793	0.552764
407	622653264													1.997945	0.346407	-0.250814	-0.146242	0.567454	-0.810314	-0.980259	0.027053	0.195857	0.133062	0.822960	0.552296
408	622669931													2.027267	0.268050	-0.304890	-0.152393	0.570925	-0.806735	-0.979050	0.024327	0.202160	0.135044	0.820642	0.555257
409	622686598													1.792537	0.170215	-0.326807	-0.157810	0.577814	-0.800767	-0.977834	0.021568	0.208268	0.137611	0.815884	0.561603
410	622703265													1.628865	0.039852	-0.396331	-0.162346	0.586631	-0.793415	-0.976671	0.019010	0.213899	0.140563	0.809631	0.569859
411	622719932													1.277661	0.066290	-0.210537	-0.166207	0.597487	-0.784464	-0.975511	0.016592	0.219322	0.144058	0.801707	0.580098
412	622736599													0.965993	0.135344	-0.274086	-0.169990	0.609752	-0.774149	-0.974243	0.014130	0.225057	0.148167	0.792466	0.591645
413	622753266													0.486970	0.382510	-0.256423	-0.174218	0.622928	-0.762633	-0.972805	0.011173	0.231356	0.152639	0.782199	0.604041
414	622769933													0.281629	0.464709	-0.191003	-0.178361	0.636097	-0.750712	-0.971260	0.008394	0.237873	0.157612	0.771564	0.616318
415	622786600													0.342570	0.243264	-0.055479	-0.183682	0.648978	-0.738301	-0.969354	0.005063	0.245616	0.163137	0.760790	0.628160
416	622803267													0.167111	0.179959	0.254130	-0.189697	0.661223	-0.725809	-0.967164	0.001505	0.254148	0.169141	0.750188	0.639226
417	622819934													0.083314	0.298191	0.520988	-0.195515	0.673516	-0.712846	-0.964927	-0.002273	0.262507	0.175182	0.739169	0.650339
418	622836601													0.165537	-0.051721	0.678370	-0.200997	0.685720	-0.699563	-0.962447	-0.005214	0.271418	0.182469	0.727847	0.661017
419	622853268													0.024312	-0.093620	0.646135	-0.206295	0.698422	-0.685309	-0.959625	-0.007545	0.281181	0.191212	0.715646	0.671780
420	622869935													-0.433316	-0.027922	0.530135	-0.211356	0.711362	-0.670293	-0.956557	-0.009643	0.291387	0.200818	0.702759	0.682497
421	622886602													-1.199747	0.195487	0.406191	-0.215451	0.723221	-0.656149	-0.953619	-0.011176	0.300808	0.210217	0.690526	0.692086
422	622903269													-1.676080	0.526080	0.238713	-0.216993	0.733283	-0.644368	-0.951667	-0.011930	0.306900	0.217358	0.679819	0.700430
423	622919936													-1.869351	-0.112988	0.018489	-0.216556	0.739292	-0.637613	-0.950604	-0.010905	0.310215	0.222386	0.673296	0.705136
424	622936603													-2.002648	-0.004564	-0.099475	-0.215050	0.741115	-0.636005	-0.950148	-0.008219	0.311692	0.225772	0.671328	0.705936
425	622953270													-2.116867	-0.113783	-0.258413	-0.210461	0.740497	-0.638256	-0.950915	-0.003558	0.309431	0.226862	0.672051	0.704898
426	622969937													-1.576146	-0.159779	-0.359042	-0.202436	0.736586	-0.645337	-0.953015	0.003460	0.302902	0.225347	0.676335	0.701277
427	622986604													-1.009422	-0.637115	-0.976296	-0.198599	0.728603	-0.655512	-0.954633	0.007615	0.297686	0.221887	0.684894	0.694036
428	623003271													-0.986914	-0.130216	-0.292007	-0.199956	0.718209	-0.666479	-0.955352	0.008108	0.295360	0.217534	0.695780	0.684521
429	623019938													-1.536838	0.139224	0.407822	-0.198668	0.707986	-0.677707	-0.956974	0.009090	0.290030	0.211498	0.706168	0.675719
430	623036605													-1.457386	-0.321314	0.238503	-0.189787	0.696684	-0.691818	-0.960705	0.013592	0.277238	0.202550	0.717249	0.666729
431	623053272													0.061654	-0.761095	-0.717749	-0.182658	0.681185	-0.708959	-0.964584	0.015413	0.263326	0.190301	0.731949	0.654245
432	623069939													0.103140	0.345914	-0.549134	-0.178822	0.663894	-0.726132	-0.967775	0.014308	0.251411	0.177300	0.747690	0.639941
433	623086606													-0.451748	0.501793	0.148423	-0.175706	0.646711	-0.742221	-0.970505	0.012629	0.240751	0.165070	0.762631	0.625417
434	623103273													-0.371611	0.196053	0.962806	-0.171651	0.628099	-0.758965	-0.973233	0.011392	0.229538	0.152819	0.778050	0.609331
435	623119940													-0.419764	0.022282	1.063108	-0.163982	0.608012	-0.776808	-0.976537	0.011378	0.215049	0.139591	0.793846	0.591881
436	623136607													-0.029107	-0.130032	0.830259	-0.153441	0.585651	-0.795907	-0.980186	0.011898	0.197723	0.125267	0.810476	0.572221
437	623153274													0.286042	0.032837	0.130875	-0.141567	0.561354	-0.815377	-0.983613	0.013125	0.179812	0.111640	0.827471	0.550298
438	623169941													0.812657	0.228347	-0.292503	-0.132529	0.535356	-0.834164	-0.986193	0.013089	0.165083	0.099297	0.844525	0.526229
439	623186608													1.381147	0.577482	-0.631904	-0.128383	0.510116	-0.850470	-0.987824	0.010209	0.155241	0.087874	0.860045	0.502594
440	623203275													2.197060	0.399331	-0.760497	-0.130178	0.488291	-0.862917	-0.988530	0.003291	0.150990	0.076567	0.872675	0.482261
441	623219942													2.897057	-0.374996	-0.660589	-0.137541	0.472585	-0.870486	-0.988338	-0.007494	0.152094	0.065354	0.881253	0.468104
442	623236609													3.036934	-0.936064	-0.225755	-0.148694	0.464634	-0.872929	-0.987330	-0.020291	0.157381	0.055412	0.885270	0.461764
443	623253276													2.488348	-1.125389	0.421444	-0.162286	0.465814	-0.869874	-0.985540	-0.032978	0.166205	0.048734	0.884268	0.464430
444	623269943													1.230801	-0.848695	0.861208	-0.172887	0.476934	-0.861768	-0.983817	-0.041829	0.174223	0.047046	0.877943	0.476448
445	623286610													0.043170	-0.536325	0.782721	-0.176315	0.496318	-0.850048	-0.982975	-0.043412	0.178540	0.051710	0.867055	0.495522
446	623303277													-1.215039	0.555686	0.720453	-0.173008	0.515677	-0.839134	-0.983156	-0.039450	0.178459	0.058923	0.855875	0.513816
447	623319944													-1.653378	1.157012	0.148686	-0.165329	0.526649	-0.833851	-0.984060	-0.031925	0.174948	0.065515	0.849483	0.523532
448	623336611													-0.706757	0.872982	-0.410728	-0.157509	0.527545	-0.834798	-0.985039	-0.024073	0.170644	0.069926	0.849186	0.523444
449	623353278													1.019756	-0.027500	-0.950932	-0.154156	0.523924	-0.837699	-0.985202	-0.017221	0.170529	0.074918	0.851591	0.518826
450	623369945													1.947905	-0.491317	-0.900094	-0.155881	0.524149	-0.837239	-0.984292	-0.011302	0.176184	0.082884	0.851552	0.517677
451	623386612													1.862520	-0.305728	-0.535510	-0.159909	0.532489	-0.831194	-0.982777	-0.006877	0.184666	0.092616	0.846409	0.524418
452	623403279													1.527708	-0.069853	-0.023752	-0.164633	0.548720	-0.819636	-0.981076	-0.005239	0.193553	0.101912	0.835990	0.539198
453	623419946													1.397665	0.009573	0.446618	-0.169696	0.570274	-0.803736	-0.979370	-0.006786	0.201964	0.109721	0.821427	0.559660
454	623436613													1.117860	0.223546	0.492933	-0.175237	0.595366	-0.784112	-0.977633	-0.011143	0.210025	0.116304	0.803377	0.584002
455	623453280													0.904862	0.092125	0.290785	-0.182111	0.622290	-0.761308	-0.975590	-0.017721	0.218884	0.122718	0.782586	0.610327
456	623469947													0.715957	0.094731	0.212577	-0.189455	0.649112	-0.736723	-0.973315	-0.025213	0.228082	0.129475	0.760275	0.636567
457	623486614													0.083202	0.436668	0.244048	-0.197085	0.673770	-0.712173	-0.970863	-0.033125	0.237336	0.136319	0.738198	0.660667
458	623503281													-0.799376	0.665305	0.084252	-0.203999	0.693737	-0.690734	-0.968497	-0.040083	0.245776	0.142818	0.719112	0.680059
459	623519948													-1.516105	0.583041	-0.200098	-0.210872	0.707157	-0.674879	-0.966134	-0.045732	0.253957	0.148724	0.705576	0.692852
460	623536615													-1.468672	0.144211	-0.220889	-0.218223	0.713832	-0.665449	-0.963777	-0.050496	0.261887	0.153341	0.698494	0.698994
461	623553282													-1.212428	-0.265225	0.258123	-0.225491	0.716424	-0.660220	-0.961571	-0.054708	0.269050	0.156634	0.695517	0.701229
462	623569949													-1.038218	-0.728242	0.546254	-0.231233	0.718153	-0.656345	-0.959852	-0.058287	0.274384	0.158793	0.693440	0.702798
463	623586616													-1.017374	-0.943979	0.534433	-0.233961	0.719927	-0.653428	-0.959023	-0.060421	0.276810	0.159802	0.691415	0.704563
464	623603283													-1.023551	-0.966821	0.320647	-0.234323	0.721403	-0.651667	-0.958880	-0.061092	0.277159	0.160132	0.689816	0.706054
465	623619950													-1.443027	-0.756837	0.381303	-0.233648	0.721682	-0.651601	-0.958911	-0.060111	0.277266	0.160929	0.689610	0.706073
466	623636617													-1.617622	-0.845421	0.478144	-0.231929	0.720192	-0.653860	-0.959066	-0.057021	0.277382	0.162485	0.691428	0.703936
467	623653284													-1.659949	-0.691815	0.504640	-0.227929	0.716021	-0.659820	-0.959707	-0.050826	0.276368	0.164350	0.696226	0.698755
468	623669951													-1.718889	-0.337420	0.474258	-0.221163	0.709942	-0.668633	-0.960923	-0.041601	0.273672	0.166476	0.703031	0.691400
469	623686618													-1.411089	-0.130276	0.376490	-0.212652	0.700630	-0.681100	-0.962430	-0.029739	0.269897	0.168843	0.712905	0.680631
470	623703285													-1.040160	0.178355	0.126649	-0.205448	0.688311	-0.695715	-0.963505	-0.017606	0.267109	0.171605	0.725202	0.666809
471	623719952													-0.699527	0.098662	0.195315	-0.199216	0.674646	-0.710750	-0.964321	-0.005920	0.264670	0.174351	0.738118	0.651755
472	623736619													-0.086212	0.245145	0.152964	-0.193888	0.660654	-0.725220	-0.964897	0.005066	0.262581	0.177149	0.750674	0.636480
473	623753286													0.550652	0.214949	-0.052274	-0.190451	0.648314	-0.737169	-0.965169	0.013552	0.261275	0.179379	0.761253	0.623151
474	623769953													0.948299	0.440674	-0.229789	-0.187578	0.639385	-0.745655	-0.965478	0.019669	0.259743	0.180742	0.768635	0.613622
475	623786620													1.406346	0.398082	-0.075056	-0.184882	0.633734	-0.751133	-0.965747	0.024445	0.258331	0.182075	0.773165	0.607507
476	623803287													1.647134	0.466260	-0.109685	-0.182575	0.631965	-0.753184	-0.965772	0.028292	0.257845	0.184258	0.774480	0.605169
477	623819954													1.997182	0.431458	-0.090518	-0.181468	0.633928	-0.751801	-0.965316	0.031095	0.259225	0.187707	0.772767	0.606298
478	623836621													2.137302	0.455050	-0.050932	-0.180321	0.639679	-0.747191	-0.964814	0.032758	0.260885	0.191359	0.767943	0.611265
479	623853288													2.130492	0.387349	-0.347850	-0.178351	0.647433	-0.740960	-0.964456	0.034191	0.262022	0.194975	0.761355	0.618322
480	623869955													1.752659	0.503667	-0.793891	-0.177224	0.656041	-0.733623	-0.964029	0.034319	0.263574	0.198092	0.753945	0.626360
481	623886622													1.296819	0.706496	-0.871712	-0.177549	0.664417	-0.725966	-0.963368	0.033321	0.266106	0.200995	0.746619	0.634162
482	623903289													0.811534	0.455466	-0.607159	-0.178583	0.671291	-0.719359	-0.962571	0.032295	0.269098	0.203875	0.740490	0.640398
483	623919956													0.520398	0.297732	-0.745913	-0.180553	0.677787	-0.712745	-0.961731	0.030183	0.272329	0.206094	0.734639	0.646399
484	623936623													0.191642	0.234150	-0.864485	-0.183579	0.684239	-0.705773	-0.960915	0.026440	0.275577	0.207222	0.728779	0.652642
485	623953290													0.059389	0.125432	-1.029904	-0.187924	0.691021	-0.697979	-0.960014	0.020905	0.279171	0.207504	0.722533	0.659461
486	623969957													0.071259	0.217935	-0.646158	-0.194350	0.698857	-0.688351	-0.958708	0.013203	0.284086	0.207624	0.715140	0.667434
487	623986624													-0.027374	0.247228	-0.027059	-0.201504	0.707776	-0.677089	-0.957100	0.004674	0.289722	0.208222	0.706422	0.676470
488	624003291													-0.167097	0.286981	0.545443	-0.208343	0.717555	-0.664611	-0.955321	-0.003637	0.295549	0.209655	0.696493	0.686253
489	624019958													-0.105543	0.217878	0.949573	-0.214618	0.727838	-0.651299	-0.953578	-0.011914	0.300912	0.211256	0.685645	0.696607
490	624036625													-0.177926	0.061129	0.789797	-0.219674	0.738264	-0.637738	-0.952210	-0.020050	0.304787	0.212226	0.674214	0.707387
491	624053292													-0.207390	-0.353321	0.948689	-0.223118	0.747703	-0.625426	-0.951435	-0.027432	0.306625	0.212107	0.663466	0.717512
492	624069959													-0.286197	-0.202233	0.772986	-0.223134	0.755331	-0.616187	-0.951484	-0.031374	0.306093	0.211869	0.654592	0.725686
493	624086626													-0.941625	-0.223051	0.511204	-0.219691	0.761550	-0.609735	-0.952082	-0.031049	0.304261	0.212779	0.647362	0.731880
494	624103293													-1.757926	-0.220990	0.273671	-0.212979	0.766485	-0.605921	-0.953436	-0.027501	0.300340	0.213543	0.641673	0.736652
495	624119960													-2.060254	-0.155511	-0.144769	-0.204221	0.769689	-0.604874	-0.955680	-0.022907	0.293513	0.212058	0.638008	0.740255
496	624136627													-2.028081	-0.336031	-0.382808	-0.193785	0.770152	-0.607712	-0.958798	-0.017509	0.283549	0.207736	0.637621	0.741813
497	624153294													-1.273195	-0.482818	-0.864314	-0.186690	0.766005	-0.615128	-0.961573	-0.014174	0.274184	0.201307	0.642678	0.739216
498	624169961													-0.915175	-0.429018	-0.485485	-0.184544	0.757465	-0.626251	-0.963223	-0.012768	0.268400	0.195308	0.652751	0.731964
499	624186628													-1.552588	-0.070384	0.455220	-0.180646	0.746961	-0.639856	-0.965048	-0.009025	0.261919	0.189869	0.664806	0.722484
500	624203295													-2.212689	-0.116095	0.039275	-0.167075	0.737987	-0.653806	-0.968960	-0.000349	0.247216	0.182214	0.674815	0.715138
501	624219962													-0.450677	-0.756553	-0.633599	-0.153743	0.725452	-0.670882	-0.973281	0.006009	0.229540	0.170552	0.688247	0.705144
502	624236629													0.392154	-0.431603	-0.617360	-0.144797	0.707111	-0.692118	-0.976759	0.009574	0.214127	0.158038	0.707038	0.689291
503	624253296													0.067228	0.185995	-0.253651	-0.140321	0.685763	-0.714170	-0.979214	0.010578	0.202555	0.146460	0.727748	0.670025
504	624269963													-0.556231	0.470204	0.909879	-0.136650	0.664216	-0.734945	-0.981367	0.010395	0.191862	0.135077	0.747468	0.650419
505	624286630													-1.187091	0.302990	1.090684	-0.124534	0.646367	-0.752795	-0.984641	0.013061	0.174103	0.122367	0.762915	0.634813
506	624303297													0.488298	-0.664476	0.203464	-0.109640	0.627916	-0.770519	-0.988242	0.014252	0.152234	0.106572	0.778150	0.618971
507	624319964													1.211461	-0.564181	-0.196035	-0.097256	0.605782	-0.789664	-0.991016	0.014243	0.132981	0.091805	0.795503	0.598955
508	624336631													1.114257	-0.270998	-0.528216	-0.089223	0.582917	-0.807618	-0.992788	0.013138	0.119162	0.080072	0.812425	0.577541
509	624353298													0.674771	0.446649	-0.192792	-0.086791	0.561428	-0.822962	-0.993758	0.009330	0.111168	0.070091	0.827473	0.557113
510	624369965													0.320455	0.482875	0.423223	-0.087579	0.541497	-0.836128	-0.994362	0.002845	0.105996	0.059775	0.840698	0.538195
511	624386632													0.432534	0.129560	0.735827	-0.086219	0.525217	-0.846589	-0.995049	-0.003228	0.099336	0.049440	0.850962	0.522895
512	624403299													0.568858	-0.218513	0.365665	-0.082356	0.511924	-0.855074	-0.995744	-0.006663	0.091916	0.041357	0.859005	0.510294
513	624419966													0.990911	-0.003728	-0.713738	-0.080092	0.499432	-0.862643	-0.996214	-0.010749	0.086271	0.033814	0.866286	0.498402
514	624436633													1.398832	0.007206	-1.414273	-0.083160	0.487111	-0.869372	-0.996223	-0.018765	0.084780	0.024984	0.873138	0.486832
515	624453300													1.850475	-0.159028	-1.245825	-0.091967	0.478773	-0.873109	-0.995629	-0.029907	0.088473	0.016247	0.877429	0.479431
516	624469967													1.834241	-0.603136	0.143949	-0.102669	0.479036	-0.871770	-0.994648	-0.039222	0.095588	0.011598	0.876918	0.480499
517	624486634													1.154623	-0.430142	1.190872	-0.109515	0.486294	-0.866905	-0.993926	-0.044032	0.100861	0.010876	0.872685	0.488162
518	624503301													0.192294	0.116381	0.830575	-0.111051	0.495358	-0.861562	-0.993756	-0.045931	0.101682	0.010797	0.867474	0.497366
519	624519968													0.352962	0.285307	-0.081762	-0.111401	0.502548	-0.857342	-0.993723	-0.047459	0.101303	0.010221	0.863246	0.504681
520	624536635													1.006367	-0.110455	-0.471733	-0.113202	0.508378	-0.853661	-0.993511	-0.048390	0.102929	0.011018	0.859773	0.510557
521	624553302													1.395869	-0.165684	-0.371130	-0.117563	0.515156	-0.848996	-0.992946	-0.047736	0.108531	0.015382	0.855766	0.517134
522	624569969													1.102279	-0.046280	-0.269065	-0.124157	0.524160	-0.842521	-0.991980	-0.045289	0.118006	0.023697	0.850415	0.525579
523	624586636													1.022666	0.036533	-0.333258	-0.132080	0.535430	-0.834188	-0.990650	-0.042302	0.129701	0.034157	0.843520	0.536011
524	624603303													1.155508	0.076771	-0.449817	-0.140869	0.548642	-0.824104	-0.988986	-0.039791	0.142563	0.045424	0.835110	0.548204
525	624619970													1.281534	0.372056	-0.305705	-0.151277	0.564120	-0.811717	-0.986826	-0.038540	0.157127	0.057354	0.824793	0.562518
526	624636637													1.307476	0.398685	-0.030655	-0.163506	0.582541	-0.796186	-0.984097	-0.039525	0.173177	0.069414	0.811840	0.579739
527	624653304													1.159794	0.148531	0.352525	-0.176543	0.604141	-0.777076	-0.980919	-0.042673	0.189678	0.081432	0.795734	0.600146
528	624669971													0.736674	0.047325	0.989663	-0.189481	0.627248	-0.755418	-0.977425	-0.047250	0.205934	0.093478	0.777385	0.622041
529	624686638													0.044812	0.047758	1.268915	-0.200489	0.651481	-0.731694	-0.974017	-0.052246	0.220368	0.105337	0.756864	0.645028
530	624703305													-0.544719	0.117817	1.189263	-0.209251	0.674656	-0.707851	-0.970942	-0.057384	0.232332	0.116124	0.735898	0.667060
531	624719972													-1.126465	0.002380	1.022312	-0.215443	0.694777	-0.686199	-0.968433	-0.061785	0.241497	0.125389	0.716566	0.686156
532	624736639													-1.416578	0.004354	0.799666	-0.219077	0.710621	-0.668598	-0.966568	-0.064492	0.248166	0.133233	0.700613	0.700992
533	624753306													-1.794691	0.148910	0.680994	-0.220338	0.721970	-0.655904	-0.965361	-0.065067	0.252673	0.139745	0.688858	0.711299
534	624769973													-2.021558	-0.081785	0.669732	-0.218897	0.728707	-0.648899	-0.964916	-0.062845	0.254927	0.144987	0.681936	0.716898
535	624786640													-2.168819	-0.059090	0.699172	-0.213342	0.731115	-0.648040	-0.965602	-0.056866	0.253731	0.148655	0.679880	0.718098
536	624803307													-1.663763	-0.328819	0.725147	-0.204686	0.729474	-0.652665	-0.967066	-0.047654	0.250025	0.151284	0.682347	0.715203
537	624819974													-1.132697	-0.581653	0.558754	-0.194678	0.724079	-0.661672	-0.968702	-0.036014	0.245602	0.154006	0.688776	0.708428
538	624836641													-0.641008	-0.443526	0.195763	-0.184653	0.716811	-0.672373	-0.970202	-0.023745	0.241131	0.156880	0.696863	0.699836
539	624853308													-0.904007	-0.158309	0.208207	-0.174646	0.709283	-0.682947	-0.971487	-0.011171	0.236830	0.160350	0.704836	0.691010
540	624869975													-0.916090	-0.261693	0.022328	-0.163666	0.702101	-0.693013	-0.972733	0.002163	0.231917	0.164329	0.712074	0.682603
541	624886642													-0.709656	-0.086347	0.148226	-0.153409	0.694636	-0.702814	-0.973815	0.014486	0.226880	0.167780	0.719216	0.674224
542	624903309													-0.852676	0.097605	0.088202	-0.142353	0.687292	-0.712296	-0.975114	0.026194	0.220151	0.169966	0.725909	0.666459
543	624919976													-0.549738	0.066464	0.061072	-0.132054	0.678043	-0.723063	-0.976391	0.036821	0.212848	0.170943	0.734099	0.657173
544	624936643													-0.314634	0.461706	-0.282987	-0.122948	0.668159	-0.733790	-0.977521	0.046077	0.205742	0.171279	0.742591	0.647474
545	624953310													-0.189243	0.709275	-0.362008	-0.117221	0.658520	-0.743378	-0.978146	0.052877	0.201082	0.171725	0.750703	0.637930
546	624969977													-0.308687	0.653238	-0.179927	-0.112104	0.649377	-0.752158	-0.978640	0.059115	0.196897	0.172324	0.758165	0.628880
547	624986644													-0.026078	0.228969	-0.069412	-0.107595	0.638193	-0.762320	-0.979017	0.065459	0.192980	0.173060	0.767088	0.617759
548	625003311													0.249651	0.225728	-0.131344	-0.104150	0.626022	-0.772819	-0.979200	0.071500	0.189882	0.174127	0.776521	0.605554
549	625019978													0.143141	0.295580	-0.006811	-0.099961	0.614667	-0.782427	-0.979424	0.077773	0.186226	0.175319	0.784943	0.594245
550	625036645													0.457874	0.187519	-0.054440	-0.095406	0.602995	-0.792019	-0.979476	0.085052	0.182740	0.177554	0.793198	0.582504
551	625053312													1.220081	-0.120918	-0.037192	-0.091632	0.591464	-0.801108	-0.979199	0.092734	0.180469	0.181031	0.800981	0.570664
552	625069979													1.639704	-0.022050	0.283389	-0.088005	0.582120	-0.808326	-0.978699	0.100572	0.178981	0.185484	0.806859	0.560869
553	625086646													1.842037	0.256631	0.191550	-0.084255	0.576342	-0.812854	-0.978116	0.107905	0.177894	0.190239	0.810053	0.554638
554	625103313													1.731080	0.404068	-0.215427	-0.080902	0.574562	-0.814453	-0.977541	0.113797	0.177381	0.194599	0.810511	0.552451
555	625119980													1.614643	0.251336	-0.750688	-0.078806	0.576326	-0.813411	-0.976966	0.117666	0.178022	0.198309	0.808704	0.553779
556	625136647													1.466160	0.065064	-1.142203	-0.077987	0.580604	-0.810443	-0.976515	0.119277	0.179418	0.200838	0.805402	0.557667
557	625153314													1.123097	0.173398	-1.331689	-0.078106	0.587904	-0.805151	-0.976224	0.118701	0.181375	0.202203	0.800174	0.564655
558	625169981													0.936472	0.376863	-1.481409	-0.080293	0.598526	-0.797069	-0.975922	0.115494	0.185035	0.202805	0.792734	0.574841
559	625186648													0.801523	0.256853	-1.188400	-0.084535	0.610693	-0.787342	-0.975525	0.110247	0.190252	0.202988	0.784155	0.586427
560	625203315													0.795575	0.284037	-0.907743	-0.090698	0.623961	-0.776174	-0.975051	0.102924	0.196678	0.202606	0.774648	0.599059
561	625219982													0.589466	0.250395	-0.868197	-0.098404	0.638484	-0.763318	-0.974427	0.093885	0.204151	0.202011	0.763887	0.612918
562	625236649													0.588243	0.150998	-0.604050	-0.108083	0.653834	-0.748879	-0.973467	0.083224	0.213159	0.201695	0.752048	0.627490
563	625253316													0.513969	0.213956	-0.092311	-0.118815	0.669984	-0.732806	-0.972183	0.071537	0.223031	0.201850	0.738921	0.642847
564	625269983													0.210906	0.301891	0.482796	-0.129040	0.687054	-0.715057	-0.970785	0.059581	0.232437	0.202301	0.724160	0.659293
565	625286650													-0.130088	0.415709	0.680612	-0.137522	0.704175	-0.696581	-0.969575	0.048082	0.240024	0.202512	0.708397	0.676138
566	625303317													-0.356747	0.057236	0.739575	-0.144591	0.720000	-0.678744	-0.968575	0.037308	0.245909	0.202377	0.692970	0.691980
567	625319984													-0.602007	-0.393226	0.749189	-0.150633	0.734584	-0.661585	-0.967536	0.027832	0.251197	0.202939	0.677946	0.706544
568	625336651													-1.201231	-0.739512	0.931470	-0.156097	0.748499	-0.644502	-0.966230	0.019724	0.256925	0.205020	0.662842	0.720144
569	625353318													-1.943498	-0.788339	0.511824	-0.157999	0.761716	-0.628351	-0.965564	0.014019	0.259786	0.206692	0.647759	0.733271
570	625369985													-2.137546	-0.637445	0.008196	-0.157570	0.771244	-0.616728	-0.965564	0.010597	0.259948	0.207019	0.636451	0.743016
571	625386652													-1.961739	-0.373309	-0.223259	-0.155312	0.775566	-0.611862	-0.965811	0.010933	0.259016	0.207573	0.631172	0.747352
572	625403319													-1.789235	0.092203	-0.372407	-0.151590	0.776299	-0.611866	-0.966560	0.013116	0.256107	0.206840	0.630228	0.748351
573	625419986													-1.472156	0.393070	-0.745768	-0.150275	0.774937	-0.613913	-0.967575	0.012234	0.252288	0.203018	0.631920	0.747971
574	625436653													-1.590297	-0.043141	-0.581769	-0.151092	0.771053	-0.618586	-0.968515	0.009787	0.248762	0.197863	0.636695	0.745298
575	625453320													-1.595764	-0.666954	-0.351273	-0.150326	0.765230	-0.625959	-0.970125	0.007773	0.242481	0.190420	0.643710	0.741201
576	625469987													-0.958294	-0.871266	-0.310970	-0.146472	0.756766	-0.637065	-0.972562	0.007505	0.232523	0.180746	0.653643	0.734902
577	625486654													0.515032	-0.465881	-0.666923	-0.145666	0.745445	-0.650456	-0.974494	0.005338	0.224351	0.170713	0.666546	0.725654
578	625503321													0.796030	0.146519	-0.292161	-0.151214	0.731943	-0.664374	-0.975012	0.000212	0.222150	0.162742	0.681365	0.713622
579	625519988													0.091547	0.135577	0.641111	-0.158573	0.719083	-0.676590	-0.974948	-0.005781	0.222356	0.155981	0.694900	0.701986
580	625536655													-0.454784	0.044017	1.296474	-0.162447	0.708262	-0.687005	-0.975476	-0.010478	0.219856	0.148517	0.705872	0.692595
581	625553322													-0.489317	-0.155289	0.904293	-0.161288	0.699649	-0.696044	-0.977027	-0.013650	0.212677	0.139298	0.714356	0.685778
582	625569989													-0.048920	-0.509442	0.373369	-0.158010	0.689411	-0.706926	-0.979062	-0.016338	0.202903	0.128334	0.724186	0.677558
583	625586656													0.108725	-0.328951	-0.017883	-0.155237	0.675979	-0.720385	-0.980814	-0.018417	0.194076	0.117924	0.736691	0.665868
584	625603323													0.355136	0.305933	-0.483917	-0.154726	0.660939	-0.734316	-0.981938	-0.020957	0.188039	0.108893	0.750147	0.652244
585	625619990													0.594267	0.624734	-0.738848	-0.157860	0.646603	-0.746314	-0.982361	-0.026117	0.185161	0.100235	0.762380	0.639320
586	625636657													1.215875	0.464071	-0.686390	-0.164580	0.634284	-0.755379	-0.982147	-0.034642	0.184899	0.091110	0.772324	0.628661
587	625653324													1.713143	0.137883	-0.426905	-0.174119	0.624767	-0.761150	-0.981331	-0.045970	0.186754	0.081688	0.779457	0.621107
588	625669991													1.887248	-0.260479	-0.230295	-0.186179	0.618984	-0.763018	-0.979787	-0.059128	0.191106	0.073176	0.783175	0.617481
589	625686658													1.801151	-0.473528	-0.153394	-0.200617	0.617518	-0.760542	-0.977360	-0.072885	0.198631	0.067226	0.783173	0.618160
590	625703325													1.449363	-0.338924	-0.122463	-0.216518	0.620635	-0.753613	-0.974113	-0.085947	0.209087	0.064996	0.779375	0.623177
591	625719992													0.727658	0.001590	0.024898	-0.233219	0.627288	-0.743047	-0.970101	-0.097301	0.222341	0.067173	0.772685	0.631226
592	625736659													-0.166063	0.311182	0.438670	-0.249399	0.635121	-0.731041	-0.965654	-0.106281	0.237102	0.072893	0.765066	0.639813
593	625753326													-0.696682	0.278017	0.600697	-0.262715	0.641528	-0.720710	-0.961526	-0.111902	0.250890	0.080304	0.758894	0.646244
594	625769993													-1.068021	0.256603	0.548549	-0.272178	0.644970	-0.714096	-0.958269	-0.114273	0.262033	0.087402	0.755616	0.649158
595	625786660													-1.096722	0.362044	0.562949	-0.278202	0.645331	-0.711443	-0.956004	-0.114274	0.270179	0.093056	0.755307	0.648731
596	625803327													-0.865560	0.504187	0.464340	-0.281687	0.642665	-0.712485	-0.954718	-0.113634	0.274958	0.095743	0.757674	0.645573
597	625819994													-0.620609	0.470517	0.507242	-0.283703	0.638162	-0.715725	-0.954226	-0.114183	0.276432	0.094685	0.761388	0.641344
598	625836661													-0.266676	0.122907	0.602666	-0.283791	0.633634	-0.719702	-0.954475	-0.114758	0.275332	0.091868	0.765074	0.637355
599	625853328													0.108882	-0.087680	0.549486	-0.281632	0.630885	-0.722957	-0.955308	-0.113817	0.272824	0.089836	0.767483	0.634744
600	625869995													0.414637	-0.250744	0.355847	-0.277979	0.629876	-0.725248	-0.956388	-0.110960	0.270203	0.089721	0.768729	0.633250
601	625886662													0.281901	0.202537	-0.063139	-0.274143	0.630749	-0.725949	-0.957405	-0.107830	0.267859	0.090672	0.768458	0.633443
602	625903329													0.746601	0.290034	-0.376331	-0.272057	0.632025	-0.725624	-0.957836	-0.105466	0.267258	0.092385	0.767738	0.634069
603	625919996													1.094078	0.565919	-0.313564	-0.270797	0.635104	-0.723403	-0.957929	-0.103555	0.267673	0.095088	0.765453	0.636427
604	625936663													1.673973	0.214411	-0.398213	-0.270810	0.640286	-0.718816	-0.957442	-0.101714	0.270110	0.099834	0.761373	0.640582
605	625953330													1.908308	0.178276	-0.639639	-0.273056	0.647588	-0.711386	-0.955995	-0.100184	0.275746	0.107300	0.755376	0.646447
606	625969997													1.775939	0.099911	-0.735130	-0.278590	0.657647	-0.699920	-0.953306	-0.100878	0.284660	0.116600	0.746541	0.655043
607	625986664													1.412698	0.061912	-0.392852	-0.286919	0.671022	-0.683672	-0.949491	-0.104545	0.295866	0.127058	0.734030	0.667125
608	626003331													0.966243	-0.009775	0.268662	-0.296235	0.686855	-0.663683	-0.945029	-0.110063	0.307907	0.138441	0.718412	0.681702
609	626019998													0.518565	-0.111795	0.553321	-0.304878	0.703341	-0.642153	-0.940494	-0.116096	0.319363	0.150070	0.701308	0.696883
610	626036665													0.218162	-0.240866	0.570784	-0.312826	0.719101	-0.620511	-0.935976	-0.122295	0.330140	0.161518	0.684060	0.711319
611	626053332													-0.151077	-0.316673	0.660321	-0.320603	0.733949	-0.598776	-0.931357	-0.129079	0.340459	0.172590	0.666826	0.724952
612	626069999													-0.685490	-0.467318	0.567609	-0.327833	0.747785	-0.577359	-0.926770	-0.135940	0.350167	0.183363	0.649875	0.737591
613	626086666													-0.948168	-0.402641	0.183436	-0.332913	0.760522	-0.557472	-0.922968	-0.141727	0.357832	0.193131	0.633655	0.749120
614	626103333													-1.008754	-0.523872	-0.198634	-0.336616	0.770801	-0.540884	-0.919936	-0.146570	0.363642	0.201018	0.619986	0.758425
615	626120000													-1.479209	-0.156665	-0.003947	-0.338831	0.777889	-0.529228	-0.917608	-0.148977	0.368511	0.207818	0.610487	0.764275
616	626136667													-1.793771	-0.288796	0.027620	-0.340069	0.782130	-0.522135	-0.915788	-0.149237	0.372908	0.213741	0.604980	0.767017
617	626153334													-1.687815	-0.364246	0.478365	-0.341046	0.783210	-0.519875	-0.914373	-0.148022	0.376843	0.218194	0.603881	0.766628
618	626170001													-1.848307	-0.592864	0.597658	-0.339681	0.782223	-0.522249	-0.914204	-0.144115	0.378763	0.221013	0.606101	0.764065
619	626186668													-1.587527	-0.474964	0.521190	-0.336548	0.779520	-0.528284	-0.915233	-0.138786	0.378269	0.221550	0.610808	0.760151
620	626203335													-1.517691	-0.236735	0.309927	-0.331517	0.775847	-0.536803	-0.917366	-0.132220	0.375444	0.220311	0.616911	0.755569
621	626220002													-1.465821	-0.307295	0.176551	-0.325092	0.771034	-0.547559	-0.920173	-0.124330	0.371246	0.218166	0.624538	0.749904
622	626236669													-1.214653	-0.032211	-0.198315	-0.318093	0.765254	-0.559646	-0.923291	-0.115999	0.366166	0.215292	0.633191	0.743451
623	626253336													-0.639819	0.156485	-0.013900	-0.312153	0.758291	-0.572325	-0.926018	-0.108264	0.361620	0.212251	0.642864	0.735986
624	626270003													-0.150284	0.185646	0.025299	-0.307800	0.750806	-0.584423	-0.927972	-0.101280	0.358624	0.210067	0.652712	0.727900
625	626286670													0.392856	0.573589	-0.088715	-0.306185	0.743358	-0.594701	-0.929031	-0.097009	0.357058	0.207731	0.661821	0.720306
626	626303337													0.602009	0.760236	0.135208	-0.304851	0.736724	-0.603575	-0.930033	-0.093739	0.355319	0.205194	0.669664	0.713754
627	626320004													0.838088	0.665529	0.178617	-0.303513	0.730622	-0.611613	-0.930850	-0.090295	0.354070	0.203466	0.676785	0.707505
628	626336671													1.285277	0.678328	0.494218	-0.302490	0.725609	-0.618055	-0.931217	-0.086667	0.354010	0.203308	0.682628	0.701915
629	626353338													1.831219	0.734712	0.318300	-0.302429	0.722594	-0.621606	-0.931068	-0.084322	0.354969	0.204083	0.686110	0.698285
630	626370005													1.800382	0.485582	0.406906	-0.301543	0.722269	-0.622415	-0.931086	-0.082503	0.355347	0.205305	0.686674	0.697373
631	626386672													1.477495	0.428513	0.029854	-0.298731	0.724513	-0.621161	-0.931737	-0.080609	0.354073	0.206459	0.684531	0.699136
632	626403339													1.348925	0.242180	-0.405832	-0.294772	0.728966	-0.617833	-0.932672	-0.078796	0.352014	0.207924	0.680000	0.703113
633	626420006													1.042497	0.018768	-0.262236	-0.290386	0.735313	-0.612365	-0.933590	-0.077286	0.349909	0.209965	0.673307	0.708924
634	626436673													0.549114	0.051243	-0.394259	-0.285612	0.742876	-0.605443	-0.934550	-0.075993	0.347622	0.212231	0.665101	0.715960
635	626453340													0.112121	0.216220	-0.610705	-0.281979	0.750599	-0.597569	-0.935117	-0.075715	0.346155	0.214579	0.656406	0.723248
636	626470007													-0.064920	0.359378	-0.646286	-0.280096	0.757500	-0.589694	-0.935051	-0.076224	0.346221	0.217313	0.648370	0.729652
637	626486674													-0.044681	0.266803	-0.349148	-0.280187	0.762983	-0.582539	-0.934340	-0.077532	0.347846	0.220235	0.641751	0.734610
638	626503341													-0.094883	0.215330	0.146496	-0.281155	0.767418	-0.576213	-0.933394	-0.079156	0.350014	0.222997	0.636242	0.738558
639	626520008													-0.315480	0.081830	0.543319	-0.281477	0.771952	-0.569966	-0.932619	-0.080301	0.351814	0.225814	0.630589	0.742540
640	626536675													-0.200551	0.315291	0.417788	-0.280975	0.777508	-0.562613	-0.932303	-0.082019	0.352255	0.227736	0.623501	0.747919
641	626553342													-0.482440	0.028370	0.404972	-0.278924	0.784104	-0.554421	-0.932800	-0.084012	0.350466	0.228224	0.614918	0.754845
642	626570009													-0.813369	-0.456319	0.404748	-0.274520	0.790262	-0.547836	-0.934062	-0.083831	0.347131	0.228399	0.607008	0.761167
643	626586676													-1.315985	-0.575907	0.230537	-0.268404	0.795064	-0.543904	-0.935789	-0.081210	0.343080	0.228600	0.601064	0.765810
644	626603343													-1.904926	-0.293252	0.006800	-0.259972	0.798016	-0.543677	-0.938484	-0.076281	0.336792	0.227294	0.597789	0.768756
645	626620010													-2.195325	0.120785	-0.411284	-0.248132	0.798911	-0.547880	-0.942643	-0.068766	0.326644	0.223283	0.597506	0.770150
646	626636677													-1.742590	-0.342489	-0.579309	-0.235439	0.795082	-0.558939	-0.947526	-0.059818	0.314032	0.216247	0.603544	0.767445
647	626653344													-1.041860	-0.513489	-0.755400	-0.224703	0.785376	-0.576796	-0.952015	-0.050716	0.301821	0.207791	0.616939	0.759085
648	626670011													-0.990450	-0.062273	-0.554312	-0.217271	0.772877	-0.596199	-0.955494	-0.043528	0.291781	0.199560	0.633061	0.747937
649	626686678													-0.236448	0.016506	-0.486362	-0.212275	0.760149	-0.614096	-0.958347	-0.039059	0.282924	0.191079	0.648574	0.736777
650	626703345													0.324945	-0.220420	-0.100893	-0.208485	0.746909	-0.631396	-0.960845	-0.035945	0.274746	0.182514	0.663954	0.725158
651	626720012													0.079689	-0.210371	0.511064	-0.203736	0.734227	-0.647613	-0.963374	-0.032539	0.266182	0.174365	0.678124	0.713964
652	626736679													-0.266219	-0.248362	0.697783	-0.197190	0.722365	-0.662801	-0.966396	-0.029503	0.255358	0.164907	0.690883	0.703908
653	626753346													-0.497961	0.057801	0.388907	-0.186736	0.710767	-0.678189	-0.970421	-0.025934	0.240022	0.153012	0.702949	0.694586
654	626770013													-0.218910	-0.220585	-0.099860	-0.174854	0.697408	-0.695017	-0.974685	-0.022709	0.222426	0.139339	0.716314	0.683724
655	626786680													-0.071997	-0.430196	0.023082	-0.164789	0.680866	-0.713629	-0.978144	-0.019794	0.206984	0.126803	0.732141	0.669247
656	626803347													0.047708	-0.141334	0.183972	-0.156724	0.662232	-0.732725	-0.980790	-0.017115	0.194315	0.116141	0.749103	0.652193
657	626820014													-0.016693	0.119930	0.198626	-0.150191	0.643548	-0.750526	-0.982949	-0.015741	0.183205	0.106087	0.765244	0.634938
658	626836681													0.031903	0.026382	0.292977	-0.144002	0.625441	-0.766868	-0.984928	-0.015556	0.172262	0.095810	0.780116	0.618255
659	626853348													-0.008927	-0.047393	0.406743	-0.135952	0.607059	-0.782941	-0.987002	-0.014635	0.160038	0.085694	0.794522	0.601158
660	626870015													0.486266	-0.077218	-0.092620	-0.125653	0.588016	-0.799030	-0.989101	-0.011947	0.146751	0.076746	0.808761	0.583108
661	626886682													1.007964	-0.043254	-0.635223	-0.117793	0.567975	-0.814573	-0.990570	-0.009407	0.136685	0.069971	0.822992	0.563727
662	626903349													1.272880	0.124824	-0.915424	-0.114269	0.549313	-0.827767	-0.991306	-0.008341	0.131310	0.065226	0.835575	0.545491
663	626920016													1.509783	0.266005	-0.975264	-0.115499	0.534665	-0.837134	-0.991461	-0.010686	0.129966	0.060542	0.844997	0.531334
664	626936683													1.640941	0.334554	-0.521290	-0.120407	0.524709	-0.842723	-0.991201	-0.016523	0.131333	0.054987	0.851121	0.522081
665	626953350													1.846722	-0.073018	-0.126888	-0.126938	0.519174	-0.845190	-0.990662	-0.023623	0.134275	0.049746	0.854342	0.517324
666	626970017													2.010115	-0.552992	0.183936	-0.134516	0.518494	-0.844434	-0.989830	-0.030514	0.138941	0.046274	0.854537	0.517326
667	626986684													1.672132	-0.361213	0.478973	-0.140811	0.525164	-0.839270	-0.988972	-0.035305	0.143835	0.045906	0.850268	0.524344
668	627003351													1.071800	0.051147	0.517189	-0.145894	0.537244	-0.830713	-0.988087	-0.037565	0.149239	0.048971	0.842590	0.536325
669	627020018													0.390941	0.343050	0.710924	-0.150156	0.549630	-0.821803	-0.987200	-0.038164	0.154853	0.053749	0.834536	0.548325
670	627036685													-0.185302	0.576829	0.657585	-0.152458	0.559770	-0.814502	-0.986570	-0.037319	0.159018	0.058617	0.827807	0.557942
671	627053352													-0.201766	0.486792	0.437134	-0.153418	0.566258	-0.809824	-0.986146	-0.035417	0.162057	0.063085	0.823467	0.563847
672	627070019													-0.020566	0.329580	0.264074	-0.153579	0.570714	-0.806659	-0.985831	-0.032766	0.164510	0.067458	0.820495	0.567659
673	627086686													0.100390	0.113886	-0.025751	-0.153627	0.574687	-0.803824	-0.985530	-0.030145	0.166802	0.071627	0.817818	0.571003
674	627103353													0.152913	0.019905	-0.312207	-0.154098	0.579126	-0.800542	-0.985115	-0.027593	0.169666	0.076169	0.814771	0.574758
675	627120020													0.385211	0.044058	-0.319198	-0.154718	0.584711	-0.796351	-0.984620	-0.025050	0.172902	0.081149	0.810855	0.579594
676	627136687													0.656461	-0.183908	-0.192261	-0.155569	0.591673	-0.791026	-0.984029	-0.022685	0.176558	0.086520	0.805859	0.585752
677	627153354													0.799737	0.003017	-0.213710	-0.156615	0.600464	-0.784165	-0.983388	-0.021045	0.180289	0.091755	0.799375	0.593785
678	627170021													0.606140	0.063896	-0.181829	-0.158653	0.611278	-0.775350	-0.982595	-0.020904	0.184579	0.096621	0.791140	0.603956
679	627186688													0.153848	0.036951	0.203491	-0.161174	0.623365	-0.765140	-0.981777	-0.022177	0.188740	0.100685	0.781616	0.615580
680	627203355													0.000381	0.058108	0.433664	-0.162833	0.635549	-0.754694	-0.981167	-0.023748	0.191698	0.103911	0.771695	0.627447
681	627220022													-0.320934	0.006319	0.482948	-0.163495	0.646870	-0.744868	-0.980843	-0.025530	0.193118	0.105906	0.762173	0.638652
682	627236689													-0.670592	-0.144987	0.411871	-0.163033	0.656182	-0.736780	-0.980798	-0.026781	0.193177	0.107028	0.754127	0.647949
683	627253356													-1.098532	-0.243332	0.329732	-0.161750	0.663117	-0.730830	-0.980983	-0.027537	0.192130	0.107280	0.748009	0.654961
684	627270023													-1.221276	-0.221317	0.430713	-0.159260	0.667154	-0.727696	-0.981469	-0.027436	0.189647	0.106559	0.744415	0.659160
685	627286690													-1.579090	-0.301361	0.462986	-0.154376	0.668570	-0.727449	-0.982426	-0.025689	0.184876	0.104915	0.743205	0.660787
686	627303357													-1.212452	-0.629820	0.417735	-0.148918	0.666111	-0.730835	-0.983510	-0.023074	0.179374	0.102619	0.745496	0.658563
687	627320024													-1.254475	-0.690514	0.781051	-0.143011	0.659779	-0.737726	-0.984559	-0.018809	0.174038	0.100951	0.751224	0.652281
688	627336691													-1.511694	-0.631003	0.932609	-0.135293	0.651308	-0.746655	-0.985696	-0.012039	0.168105	0.100499	0.758718	0.643620
689	627353358													-1.402823	-0.550377	0.710124	-0.125378	0.641200	-0.757062	-0.986921	-0.002675	0.161179	0.101323	0.767369	0.633149
690	627370025													-1.036547	-0.473595	0.575133	-0.115620	0.628016	-0.769563	-0.987885	0.008034	0.154977	0.103511	0.778159	0.619479
691	627386692													-0.642407	-0.372197	0.493558	-0.105784	0.613604	-0.782496	-0.988584	0.020011	0.149336	0.107291	0.789361	0.604482
692	627403359													-0.573254	0.120833	0.446039	-0.094805	0.599349	-0.794854	-0.989098	0.033664	0.143357	0.112679	0.799780	0.589624
693	627420026													-0.454100	0.468307	0.343453	-0.083874	0.584090	-0.807344	-0.989320	0.048116	0.137590	0.119211	0.810262	0.573816
694	627436693													-0.129006	0.608339	0.426313	-0.072673	0.566886	-0.820584	-0.989313	0.063306	0.131350	0.126408	0.821360	0.556227
695	627453360													0.249214	0.560476	0.190056	-0.062437	0.548464	-0.833840	-0.988967	0.078452	0.125656	0.134334	0.832486	0.537514
696	627470027													0.557448	0.429245	0.173468	-0.052566	0.530509	-0.846048	-0.988260	0.094071	0.120389	0.143456	0.842443	0.519336
697	627486694													0.823571	0.083649	-0.038589	-0.042347	0.513343	-0.857138	-0.987224	0.110402	0.114894	0.153609	0.851053	0.502109
698	627503361													1.189508	0.559095	-0.079564	-0.031329	0.499090	-0.865984	-0.985763	0.127768	0.109298	0.165194	0.857079	0.487982
699	627520028													1.401292	1.020475	-0.021212	-0.017575	0.488115	-0.872602	-0.983656	0.147978	0.102587	0.179200	0.860143	0.477537
700	627536695													1.329400	0.126562	-0.236425	-0.003986	0.477077	-0.878853	-0.980957	0.168797	0.096079	0.194185	0.862499	0.467319
701	627553362													0.642433	-0.159455	-0.101830	0.008406	0.465899	-0.884798	-0.977866	0.188820	0.090136	0.209062	0.864456	0.457174
702	627570029													0.364468	-0.235606	-0.058206	0.021246	0.455606	-0.889928	-0.974597	0.207944	0.083191	0.222958	0.865553	0.448450
703	627586696													0.465189	-0.614648	-0.459287	0.033200	0.448433	-0.893200	-0.971699	0.223613	0.076147	0.233878	0.865393	0.443166
704	627603363													0.719365	-0.614766	-0.976688	0.043058	0.446203	-0.893895	-0.969591	0.234415	0.070308	0.240914	0.863686	0.442728
705	627620030													0.800130	0.128034	-1.694124	0.048849	0.449357	-0.892016	-0.968673	0.239028	0.067365	0.243488	0.860781	0.446957
706	627636697													0.943833	0.906768	-1.749486	0.050189	0.454698	-0.889231	-0.968833	0.238416	0.067230	0.242576	0.858142	0.452492
707	627653364													0.960423	0.969489	-1.555107	0.048241	0.460285	-0.886460	-0.969751	0.234193	0.068828	0.239284	0.856324	0.457659
708	627670031													1.100797	0.649673	-1.393131	0.043827	0.466019	-0.883689	-0.971260	0.227015	0.071547	0.233953	0.855155	0.462574
709	627686698													1.226282	0.354035	-1.099751	0.038042	0.473271	-0.880095	-0.973097	0.217823	0.075073	0.227235	0.853562	0.468824
710	627703365													1.310773	0.022225	-0.927941	0.031579	0.483025	-0.875037	-0.974946	0.207750	0.079494	0.220186	0.850604	0.477485
711	627720032													1.362469	-0.192683	-0.486564	0.024299	0.495542	-0.868244	-0.976762	0.196765	0.084966	0.212944	0.846003	0.488808
712	627736699													1.173539	-0.354439	-0.074074	0.016459	0.510987	-0.859431	-0.978454	0.185157	0.091350	0.205808	0.839410	0.503024
713	627753366													1.211579	-0.391733	-0.030911	0.008255	0.529678	-0.848159	-0.979902	0.173343	0.098716	0.199310	0.830297	0.520463
714	627770033													1.172937	-0.191943	-0.085991	-0.000831	0.551202	-0.834372	-0.981054	0.161198	0.107468	0.193735	0.818652	0.540624
715	627786700													0.909827	0.263591	0.154111	-0.011036	0.574014	-0.818771	-0.981821	0.148945	0.117654	0.189487	0.805185	0.561936
716	627803367													0.593759	0.482785	0.575617	-0.021580	0.596497	-0.802325	-0.982050	0.137765	0.128837	0.187384	0.790704	0.582817
717	627820034													0.201114	0.671461	0.670047	-0.031314	0.617726	-0.785769	-0.981863	0.128061	0.139803	0.186986	0.775896	0.602513
718	627836701													-0.160651	0.555654	0.620443	-0.040194	0.636733	-0.770036	-0.981422	0.119537	0.150072	0.187604	0.761762	0.620100
719	627853368													-0.425031	0.299673	0.475452	-0.049146	0.653383	-0.755431	-0.980645	0.111953	0.160628	0.189524	0.748704	0.635235
720	627870035													-0.660961	-0.056075	0.592572	-0.057950	0.668879	-0.741109	-0.979510	0.105329	0.171655	0.192876	0.735871	0.649070
721	627886702													-1.229432	-0.055724	0.464574	-0.064065	0.684500	-0.726193	-0.978519	0.099797	0.180392	0.195950	0.722150	0.663402
722	627903369													-1.328812	-0.133247	0.114008	-0.067715	0.698144	-0.712748	-0.978069	0.094581	0.185565	0.196964	0.709682	0.676429
723	627920036													-1.008080	0.033265	-0.251768	-0.072297	0.708175	-0.702325	-0.977285	0.090349	0.191704	0.199214	0.700232	0.685557
724	627936703													-1.096331	-0.069031	0.003012	-0.076912	0.714979	-0.694902	-0.976243	0.087601	0.198183	0.202571	0.693636	0.691256
725	627953370													-1.918005	0.172343	0.150848	-0.079249	0.720096	-0.689334	-0.975867	0.085109	0.201098	0.203478	0.688635	0.695973
726	627970037													-1.841779	0.119075	-0.474631	-0.076157	0.722809	-0.686838	-0.976890	0.083882	0.196593	0.199713	0.685938	0.699717
727	627986704													-0.367761	-0.353429	-1.702381	-0.077348	0.721641	-0.687933	-0.977710	0.080185	0.194044	0.195192	0.687608	0.699354
728	628003371													0.527420	-0.425739	-1.115507	-0.087488	0.718905	-0.689581	-0.977295	0.072157	0.199216	0.192976	0.691353	0.696270
729	628020038													0.204041	0.014183	0.317098	-0.102190	0.717646	-0.688870	-0.976002	0.061531	0.208886	0.192293	0.693684	0.694136
730	628036705													-0.707516	0.346088	1.395788	-0.114306	0.718910	-0.685641	-0.974899	0.051564	0.216595	0.191067	0.693188	0.694970
731	628053372													-0.571032	0.036991	0.835186	-0.118905	0.721670	-0.681949	-0.975401	0.043499	0.216104	0.185620	0.690870	0.698745
732	628070039													0.128569	-0.572969	0.010222	-0.121766	0.723113	-0.679913	-0.976503	0.035436	0.212571	0.177806	0.689821	0.701807
733	628086706													0.268117	-0.790364	0.439109	-0.125969	0.721720	-0.680627	-0.976974	0.028842	0.211399	0.172202	0.691584	0.701468
734	628103373													-0.365988	-0.709394	0.633469	-0.129577	0.718432	-0.683421	-0.976941	0.025452	0.211985	0.169692	0.695131	0.698568
735	628120040													-1.242570	-0.097905	0.653380	-0.130185	0.715015	-0.686881	-0.977222	0.024574	0.210794	0.167600	0.698677	0.695529
736	628136707													-1.531924	0.115935	0.174314	-0.127568	0.710902	-0.691625	-0.978239	0.024859	0.205985	0.163628	0.702852	0.692261
737	628153374													-1.675479	0.234894	-0.278957	-0.121961	0.703124	-0.700529	-0.979922	0.026862	0.197564	0.157730	0.710559	0.685731
738	628170041													-1.327516	0.240167	-0.687654	-0.116990	0.689827	-0.714459	-0.981809	0.027995	0.187797	0.149549	0.723432	0.674003
739	628186708													-0.701844	0.452764	-0.490883	-0.114098	0.670672	-0.732927	-0.983490	0.028054	0.178775	0.140461	0.741224	0.656398
740	628203375													-0.152951	0.302843	-0.335995	-0.113036	0.648144	-0.753082	-0.984823	0.027381	0.171386	0.131703	0.761025	0.635212
741	628220042													0.749539	0.166660	-0.307488	-0.114193	0.626293	-0.771179	-0.985914	0.024042	0.165515	0.122201	0.779217	0.614726
742	628236709													1.321137	-0.064821	0.022223	-0.117160	0.608041	-0.785213	-0.986729	0.018233	0.161346	0.112422	0.793696	0.597836
743	628253376													1.968695	-0.311134	0.284422	-0.120889	0.594299	-0.795106	-0.987234	0.011705	0.158849	0.103710	0.804159	0.585297
744	628270043													2.182567	-0.484956	0.375519	-0.124931	0.586120	-0.800535	-0.987318	0.006218	0.158633	0.097955	0.810201	0.577910
745	628286710													2.218113	-0.983328	0.282683	-0.130358	0.584179	-0.801088	-0.986721	0.002519	0.162403	0.096890	0.811621	0.576094
746	628303377													1.916477	-0.807946	0.358405	-0.137904	0.589386	-0.795994	-0.985328	-0.000050	0.170669	0.100550	0.807852	0.580746
747	628320044													1.266573	-0.285506	0.249055	-0.147492	0.599480	-0.786683	-0.983258	-0.002823	0.182196	0.107002	0.800385	0.589860
748	628336711													0.007528	0.442796	0.307837	-0.158265	0.610074	-0.776378	-0.980789	-0.006320	0.194968	0.114038	0.792319	0.599354
749	628353378													-0.894724	0.707389	0.456867	-0.168093	0.617402	-0.768479	-0.978473	-0.009811	0.206143	0.119733	0.786587	0.605760
750	628370045													-1.033623	0.502832	0.466875	-0.174873	0.620817	-0.764202	-0.976848	-0.012248	0.213583	0.123236	0.783860	0.608586
751	628386712													-1.026079	0.194643	0.230863	-0.178159	0.622257	-0.762270	-0.976128	-0.013957	0.216749	0.124235	0.782688	0.609889
752	628403379													-1.223152	0.487020	-0.035320	-0.177855	0.623360	-0.761439	-0.976357	-0.015173	0.215633	0.122864	0.781788	0.611320
753	628420046													-1.114007	0.406231	-0.074874	-0.174675	0.622552	-0.762836	-0.977422	-0.016086	0.210683	0.118890	0.782413	0.611306
754	628436713													-0.479609	0.541947	-0.133392	-0.169129	0.618515	-0.767356	-0.978990	-0.015449	0.203322	0.113903	0.785621	0.608133
755	628453380													0.231095	0.243139	0.009906	-0.162948	0.610950	-0.774718	-0.980557	-0.013259	0.195786	0.109344	0.791558	0.601231
756	628470047													0.772907	0.215357	0.175915	-0.156728	0.601489	-0.783356	-0.981929	-0.009711	0.189000	0.106075	0.798822	0.592142
757	628486714													1.119038	-0.015046	0.138277	-0.151339	0.592835	-0.790976	-0.983007	-0.006157	0.183466	0.103895	0.805301	0.583692
758	628503381													1.169217	-0.135048	-0.073812	-0.147662	0.586216	-0.796585	-0.983621	-0.002860	0.180228	0.103375	0.810150	0.577036
759	628520048													1.303321	-0.399092	-0.320059	-0.146646	0.582937	-0.799174	-0.983678	-0.000774	0.179938	0.104274	0.812517	0.573535
760	628536715													1.375420	-0.349582	-0.165257	-0.146583	0.584201	-0.798262	-0.983427	0.000982	0.181303	0.106701	0.811608	0.574375
761	628553382													1.171562	-0.371455	0.192801	-0.146373	0.590196	-0.793879	-0.983071	0.002622	0.183206	0.110209	0.807256	0.579820
762	628570049													0.388484	-0.133936	0.084990	-0.145755	0.598763	-0.787552	-0.982769	0.003832	0.184798	0.113668	0.800917	0.587887
763	628586716													-0.168904	0.211817	0.097922	-0.144530	0.606756	-0.781638	-0.982627	0.004939	0.185528	0.116430	0.794873	0.595501
764	628603383													-0.298694	0.061188	0.072460	-0.142816	0.611375	-0.778347	-0.982657	0.006392	0.185325	0.118278	0.791315	0.599859
765	628620050													-0.681994	-0.044766	0.370272	-0.141243	0.613059	-0.777309	-0.982728	0.008005	0.184883	0.119566	0.789996	0.601340
766	628636717													-1.020671	-0.284540	0.904476	-0.138146	0.611864	-0.778805	-0.983040	0.011052	0.183056	0.120613	0.790886	0.599960
767	628653384													-1.058890	-0.471564	1.195814	-0.132114	0.608479	-0.782496	-0.983758	0.016288	0.178760	0.121517	0.793403	0.596444
768	628670051													-1.225001	-0.627827	1.301938	-0.122491	0.604036	-0.787488	-0.984794	0.024515	0.171986	0.123191	0.796580	0.591848
769	628686718													-1.240748	-1.058713	0.896867	-0.107655	0.599909	-0.792792	-0.986249	0.036130	0.161265	0.125388	0.799252	0.587770
770	628703385													-0.878952	-0.809708	0.319550	-0.092363	0.595020	-0.798386	-0.987409	0.048683	0.150513	0.128426	0.802235	0.583031
771	628720052													-0.991466	-0.382690	0.298120	-0.080223	0.587958	-0.804903	-0.987634	0.062237	0.143897	0.134700	0.806494	0.575694
772	628736719													-0.921034	-0.280277	0.662697	-0.069145	0.578783	-0.812545	-0.987307	0.077036	0.138890	0.142982	0.811835	0.566110
773	628753386													-0.867529	-0.413045	1.102655	-0.056192	0.566376	-0.822229	-0.986791	0.093820	0.132064	0.151940	0.818789	0.553623
774	628770053													-0.900942	-0.556320	0.705701	-0.041926	0.550304	-0.833911	-0.985932	0.112378	0.123728	0.161801	0.827367	0.537851
775	628786720													-0.506448	-0.143972	0.389803	-0.028419	0.533801	-0.845133	-0.984325	0.132278	0.116649	0.174059	0.835200	0.521674
776	628803387													-0.475600	0.270253	0.821221	-0.015764	0.517148	-0.855751	-0.981908	0.153516	0.110861	0.188703	0.842016	0.505372
777	628820054													-0.451213	0.942147	1.508263	-0.001738	0.499223	-0.866472	-0.978528	0.177737	0.104366	0.206106	0.848049	0.488195
778	628836721													-0.164331	0.364961	1.330121	0.013775	0.476120	-0.879272	-0.974432	0.203616	0.094991	0.224261	0.855482	0.466751
779	628853388													-0.007548	-0.285290	1.223620	0.028449	0.449327	-0.892914	-0.969498	0.229952	0.084826	0.243442	0.863266	0.442164
780	628870055													0.219916	-0.228206	0.523576	0.043646	0.423372	-0.904904	-0.963780	0.256381	0.073466	0.263103	0.868922	0.419227
781	628886722													0.259101	0.216038	0.094586	0.059663	0.400077	-0.914538	-0.957442	0.282117	0.060954	0.282393	0.871980	0.399882
782	628903389													0.524366	0.673697	-0.191138	0.075442	0.378021	-0.922718	-0.950573	0.306776	0.047961	0.301198	0.873492	0.382480
783	628920056													0.698870	0.638002	-0.113457	0.091602	0.357420	-0.929441	-0.943314	0.330156	0.033994	0.319011	0.873640	0.367402
784	628936723													1.035200	0.617506	0.103534	0.108763	0.338136	-0.934791	-0.935512	0.352795	0.018768	0.336136	0.872468	0.354701
785	628953390													1.328497	-0.075621	-0.207351	0.125470	0.320816	-0.938794	-0.927118	0.374748	0.004154	0.353144	0.869851	0.344454
786	628970057													1.024384	-0.300801	-0.534245	0.141644	0.307493	-0.940949	-0.918799	0.394614	-0.009353	0.368436	0.865868	0.338419
787	628986724													0.987519	0.269456	-0.597343	0.158494	0.298039	-0.941304	-0.910315	0.413309	-0.022413	0.382369	0.860435	0.336816
788	629003391													0.945103	0.301014	-0.769483	0.175873	0.290868	-0.940460	-0.901450	0.431456	-0.035136	0.395547	0.853956	0.338085
789	629020058													1.044355	0.065357	-0.922261	0.192360	0.286158	-0.938675	-0.892837	0.447984	-0.046397	0.407235	0.847009	0.341666
790	629036725													0.974784	-0.166626	-0.561227	0.207612	0.283756	-0.936152	-0.884784	0.462626	-0.055994	0.417199	0.839917	0.347109
791	629053392													0.516145	-0.570710	-0.417614	0.221609	0.283518	-0.933010	-0.877069	0.476131	-0.063638	0.426192	0.832416	0.354180
792	629070059													0.514575	-0.205451	-0.445758	0.235098	0.284647	-0.929357	-0.869448	0.489016	-0.070165	0.434498	0.824524	0.362452
793	629086726													0.446347	0.335743	-0.887100	0.248201	0.285913	-0.925554	-0.862058	0.501018	-0.076404	0.441874	0.816845	0.370827
794	629103393													0.191520	0.602452	-1.227791	0.260022	0.285598	-0.922400	-0.855269	0.511541	-0.082712	0.448223	0.810407	0.377275
795	629120060													0.088810	0.855019	-1.309003	0.269395	0.282688	-0.920605	-0.849359	0.520296	-0.088780	0.453890	0.805841	0.380268
796	629136727													0.030447	0.615761	-1.644474	0.275238	0.277295	-0.920517	-0.844771	0.526827	-0.093889	0.458919	0.803468	0.379253
797	629153394													0.141349	0.597159	-2.068127	0.277066	0.271455	-0.921709	-0.842191	0.530390	-0.096957	0.462545	0.803118	0.375570
798	629170061													0.448360	0.233911	-2.252319	0.274990	0.267673	-0.923435	-0.842021	0.530666	-0.096923	0.464091	0.804205	0.371314
799	629186728													0.731930	0.042925	-2.324429	0.270200	0.269058	-0.924446	-0.844495	0.527366	-0.093343	0.462406	0.805911	0.369712
800	629203395													0.859936	-0.119971	-2.407713	0.262523	0.276546	-0.924448	-0.849987	0.519754	-0.085895	0.456732	0.808318	0.371508
801	629220062													1.120685	-0.162104	-2.474552	0.250986	0.289100	-0.923811	-0.858677	0.507058	-0.074610	0.446856	0.811981	0.375508
802	629236729													1.353361	-0.127242	-2.468682	0.235694	0.306542	-0.922215	-0.870056	0.489322	-0.059714	0.432956	0.816453	0.382039
803	629253396													1.588511	-0.032570	-2.226103	0.217650	0.329050	-0.918888	-0.883042	0.467430	-0.041775	0.415770	0.820509	0.392302
804	629270063													1.787266	0.030338	-1.849839	0.197468	0.356369	-0.913240	-0.896517	0.442502	-0.021177	0.396564	0.822917	0.406871
805	629286730													1.803537	-0.147405	-1.359406	0.174880	0.387430	-0.905160	-0.909844	0.414946	0.001821	0.376299	0.823236	0.425067
806	629303397													1.773514	-0.119120	-0.736359	0.149766	0.421671	-0.894295	-0.922587	0.384845	0.026955	0.355531	0.821028	0.446665
807	629320064													1.741520	0.372193	-0.214110	0.124067	0.458065	-0.880218	-0.933920	0.353624	0.052389	0.335264	0.815553	0.471668
808	629336731													1.487827	0.726028	0.171267	0.098206	0.494939	-0.863360	-0.943433	0.322378	0.077495	0.316684	0.806913	0.498601
809	629353398													1.123341	0.825770	0.872634	0.072290	0.531475	-0.843984	-0.951002	0.291776	0.102281	0.300614	0.795237	0.526526
810	629370065													0.880014	0.600151	1.315710	0.046649	0.566969	-0.822417	-0.956728	0.262088	0.126414	0.287219	0.780933	0.554661
811	629386732													0.476945	-0.109189	1.725987	0.022046	0.601507	-0.798564	-0.960725	0.233755	0.149551	0.276624	0.763903	0.583036
812	629403399													0.276260	-0.253649	1.934433	-0.000295	0.636125	-0.771586	-0.963125	0.207417	0.171371	0.269054	0.743184	0.612607
813	629420066													-0.139702	-0.059830	2.014260	-0.019885	0.670459	-0.741680	-0.963709	0.184669	0.192773	0.266212	0.718597	0.642456
814	629436733													-0.986255	0.039037	1.765761	-0.035937	0.703078	-0.710204	-0.962680	0.166400	0.213443	0.268245	0.691370	0.670859
815	629453400													-1.796842	0.046681	1.056993	-0.049435	0.732359	-0.679122	-0.960746	0.150980	0.232751	0.272991	0.663969	0.696147
816	629470067													-2.394265	0.011583	0.773200	-0.060689	0.756916	-0.650689	-0.958567	0.137578	0.249443	0.278328	0.638867	0.717205
817	629486734													-2.312397	0.148900	0.144603	-0.071781	0.775513	-0.627238	-0.956310	0.125172	0.264201	0.283404	0.618799	0.732646
818	629503401													-2.204657	0.197963	-0.341445	-0.084478	0.787037	-0.611094	-0.953572	0.114065	0.278729	0.289074	0.606269	0.740861
819	629520068													-2.380502	0.330198	-0.266092	-0.097911	0.792778	-0.601595	-0.950411	0.104812	0.292802	0.295181	0.600431	0.743203
820	629536735													-1.652846	0.149606	0.063291	-0.109368	0.795677	-0.595766	-0.948237	0.096253	0.302624	0.298135	0.598025	0.743963
821	629553402													-1.020323	-0.244993	-0.132220	-0.118127	0.797581	-0.591532	-0.947310	0.088101	0.307963	0.297740	0.596743	0.745150
822	629570069													-0.509344	-0.640763	-0.113291	-0.129624	0.798201	-0.588280	-0.946268	0.077687	0.313913	0.296268	0.597361	0.745242
823	629586736													-0.251357	-0.334877	0.219131	-0.142512	0.798364	-0.585068	-0.944952	0.066159	0.320452	0.294545	0.598530	0.744987
824	629603403													-0.085270	-0.001690	0.735723	-0.152533	0.799829	-0.580523	-0.944275	0.055415	0.324458	0.291681	0.597664	0.746807
825	629620070													0.040608	-0.256958	0.495717	-0.158938	0.802456	-0.575154	-0.944345	0.046382	0.325672	0.288014	0.594905	0.750423
826	629636737													0.085229	-0.551480	0.254285	-0.165474	0.805076	-0.569624	-0.944330	0.037192	0.326890	0.284356	0.592005	0.754103
827	629653404													-0.311648	-0.405710	0.147555	-0.172455	0.805966	-0.566284	-0.943775	0.029413	0.329278	0.282043	0.591230	0.755578
828	629670071													-0.953056	0.048059	0.077477	-0.179606	0.804811	-0.565704	-0.942995	0.022931	0.332016	0.280182	0.593088	0.754814
829	629686738													-1.062747	0.597921	-0.017876	-0.185948	0.801808	-0.567916	-0.942824	0.017106	0.332852	0.276598	0.597337	0.752783
830	629703405													-0.562351	0.632952	-0.126201	-0.190034	0.797745	-0.572267	-0.943969	0.011737	0.329826	0.269833	0.602881	0.750816
831	629720072													-0.102053	-0.182323	-0.140601	-0.193658	0.792301	-0.578581	-0.945592	0.006419	0.325291	0.261442	0.610097	0.747950
832	629736739													0.312430	-0.407796	0.130560	-0.197364	0.785183	-0.586972	-0.946922	0.002288	0.321454	0.253743	0.619260	0.743056
833	629753406													0.182438	-0.222000	0.153609	-0.200694	0.777922	-0.595449	-0.947879	-0.000649	0.318631	0.247483	0.628361	0.737506
834	629770073													-0.052465	0.054866	0.273056	-0.203538	0.771313	-0.603033	-0.948686	-0.003128	0.316204	0.242006	0.636448	0.732371
835	629786740													-0.261552	0.087004	0.376896	-0.205421	0.765432	-0.609850	-0.949701	-0.005406	0.313111	0.236369	0.643495	0.728042
836	629803407													-0.365628	0.143358	0.450708	-0.205530	0.759579	-0.617087	-0.951343	-0.007156	0.308050	0.229572	0.650375	0.724092
837	629820074													-0.494913	0.009041	0.251644	-0.203630	0.753056	-0.625652	-0.953682	-0.008045	0.300710	0.221418	0.657907	0.719814
838	629836741													-0.424979	0.047347	0.063589	-0.200243	0.745196	-0.636071	-0.956465	-0.007998	0.291737	0.212314	0.666798	0.714355
839	629853408													-0.298387	0.086079	-0.098492	-0.196637	0.736141	-0.647634	-0.959310	-0.007941	0.282243	0.202627	0.676782	0.707749
840	629870075													0.004390	0.236737	-0.143521	-0.193400	0.725895	-0.660055	-0.961940	-0.007916	0.273147	0.193051	0.687760	0.699798
841	629886742													0.429039	-0.097238	-0.228877	-0.191359	0.714927	-0.672504	-0.964085	-0.008339	0.265463	0.184179	0.699150	0.690846
842	629903409													0.994938	-0.108664	-0.065039	-0.190610	0.703805	-0.684343	-0.965607	-0.008844	0.259854	0.176834	0.710338	0.681285
843	629920076													1.296693	0.017899	0.189814	-0.190697	0.694483	-0.693778	-0.966587	-0.009512	0.256162	0.171301	0.719446	0.673092
844	629936743													1.512018	-0.072656	0.401978	-0.191032	0.688311	-0.699810	-0.967237	-0.010550	0.253657	0.167212	0.725339	0.667775
845	629953410													1.426301	-0.132615	0.470998	-0.190820	0.685669	-0.702456	-0.967782	-0.011654	0.251520	0.164273	0.727820	0.665802
846	629970077													1.236516	-0.141160	0.380406	-0.189674	0.686030	-0.702415	-0.968354	-0.012510	0.249268	0.162218	0.727466	0.666692
847	629986744													0.861723	0.055849	0.171800	-0.187995	0.689238	-0.699721	-0.968894	-0.013404	0.247111	0.160940	0.724411	0.670319
848	630003411													0.681459	-0.012637	-0.037743	-0.186504	0.694525	-0.694875	-0.969219	-0.014365	0.245779	0.160718	0.719325	0.675827
849	630020078													0.567483	-0.111701	-0.217907	-0.185755	0.701171	-0.688371	-0.969325	-0.016010	0.245262	0.160950	0.712814	0.682636
850	630036745													0.414859	0.129783	-0.180694	-0.185461	0.709099	-0.680282	-0.969293	-0.018249	0.245231	0.161478	0.704873	0.690709
851	630053412													0.503754	0.194964	-0.031726	-0.184633	0.718459	-0.670617	-0.969372	-0.020686	0.244724	0.161951	0.695262	0.700274
852	630070079													0.390493	-0.000800	-0.193935	-0.183815	0.728715	-0.659687	-0.969454	-0.023523	0.244144	0.162394	0.684413	0.710779
853	630086746													0.183531	-0.133535	-0.264931	-0.183963	0.739028	-0.648070	-0.969294	-0.026942	0.244424	0.163176	0.673136	0.721292
854	630103413													-0.147100	-0.153284	-0.148819	-0.185346	0.749247	-0.635827	-0.968857	-0.031212	0.245646	0.164204	0.661555	0.731698
855	630120080													-0.348718	-0.299576	0.559976	-0.186500	0.758707	-0.624164	-0.968460	-0.035124	0.246680	0.165235	0.650484	0.741329
856	630136747													-0.549073	-0.548975	0.850537	-0.184598	0.768676	-0.612423	-0.968493	-0.036285	0.246383	0.167167	0.638609	0.751155
857	630153414													-1.163070	-0.674191	1.065089	-0.179092	0.777651	-0.602648	-0.969296	-0.034557	0.243458	0.168500	0.627746	0.759963
858	630170081													-1.435631	-0.882284	0.916903	-0.170768	0.784264	-0.596463	-0.970782	-0.030343	0.238039	0.168587	0.619685	0.766530
859	630186748													-1.281465	-1.126657	0.902943	-0.160762	0.787358	-0.595167	-0.972293	-0.022650	0.232665	0.169710	0.616080	0.769184
860	630203415													-1.608584	-1.010112	0.817818	-0.149433	0.786796	-0.598850	-0.973530	-0.011145	0.228286	0.172940	0.617113	0.767635
861	630220082													-1.932171	-0.582926	0.537372	-0.135720	0.783874	-0.605906	-0.974866	0.003399	0.222764	0.176679	0.620911	0.763711
