// Start Time: Unknown
// Update Rate: 100.0Hz
//Filter Profile: human (46.1)
// Option Flags: AHS Disabled ICC Disabled
// Firmware Version: 4.0.2
PacketCounter	SampleTimeFine	Year	Month	Day	Second	UTC_Nano	UTC_Year	UTC_Month	UTC_Day	UTC_Hour	UTC_Minute	UTC_Second	UTC_Valid	Acc_X	Acc_Y	Acc_Z	Mat[1][1]	Mat[1][2]	Mat[1][3]	Mat[2][1]	Mat[2][2]	Mat[2][3]	Mat[3][1]	Mat[3][2]	Mat[3][3]
1	2232639799													-0.155469	0.257800	-0.112977	-0.334413	0.051780	0.941003	-0.849017	0.416852	-0.324661	-0.409070	-0.907498	-0.095438
2	2232656466													-0.106706	0.260804	-0.220467	-0.337985	0.049281	0.939860	-0.849999	0.412758	-0.327312	-0.404065	-0.909507	-0.097617
3	2232673133													-0.000748	0.089861	-0.141311	-0.341635	0.047312	0.938641	-0.851167	0.407896	-0.330358	-0.398498	-0.911802	-0.099081
4	2232689800													0.131224	-0.039598	-0.203969	-0.343976	0.045461	0.937877	-0.851681	0.405468	-0.332017	-0.395373	-0.912978	-0.100753
5	2232706467													0.034204	-0.192337	-0.071119	-0.344961	0.044749	0.937550	-0.851666	0.404948	-0.332689	-0.394547	-0.913244	-0.101580
6	2232723134													-0.033654	-0.299330	-0.020128	-0.345945	0.044595	0.937194	-0.850914	0.405933	-0.333412	-0.395306	-0.912814	-0.102484
7	2232739801													-0.003629	-0.276744	-0.054767	-0.346915	0.046114	0.936762	-0.849666	0.407468	-0.334719	-0.397136	-0.912055	-0.102175
8	2232756468													0.128783	-0.152997	-0.133765	-0.347873	0.047982	0.936313	-0.848462	0.408771	-0.336181	-0.398868	-0.911375	-0.101489
9	2232773135													0.279140	-0.085652	-0.208268	-0.348694	0.049432	0.935932	-0.847695	0.409326	-0.337439	-0.399782	-0.911048	-0.100826
10	2232789802													0.130982	-0.133311	-0.114068	-0.349258	0.050574	0.935661	-0.847351	0.409234	-0.338414	-0.400019	-0.911027	-0.100074
11	2232806469													0.008408	-0.085758	-0.116554	-0.349702	0.052811	0.935371	-0.847005	0.408844	-0.339748	-0.400363	-0.911075	-0.098242
12	2232823136													-0.157170	-0.035811	-0.055090	-0.350063	0.057061	0.934987	-0.846441	0.408278	-0.341827	-0.401240	-0.911072	-0.094624
13	2232839803													0.030596	-0.017339	-0.121799	-0.350526	0.062564	0.934461	-0.845692	0.407571	-0.344516	-0.402414	-0.911028	-0.089954
14	2232856470													0.131688	0.057486	-0.127728	-0.351089	0.067816	0.933883	-0.845034	0.406643	-0.347216	-0.403304	-0.911067	-0.085461
15	2232873137													0.223955	0.144838	-0.198751	-0.351858	0.071848	0.933292	-0.844574	0.405530	-0.349630	-0.403598	-0.911254	-0.082008
16	2232889804													0.208933	0.155948	-0.233453	-0.352708	0.074876	0.932733	-0.844298	0.404293	-0.351722	-0.403433	-0.911559	-0.079380
17	2232906471													0.083736	0.095635	-0.104369	-0.353309	0.078192	0.932233	-0.844034	0.403121	-0.353694	-0.403459	-0.911800	-0.076429
18	2232923138													0.116161	0.123194	-0.187546	-0.353836	0.081122	0.931783	-0.843812	0.402055	-0.355433	-0.403462	-0.912015	-0.073810
19	2232939805													0.113128	0.109750	-0.171371	-0.354425	0.083665	0.931334	-0.843591	0.401075	-0.357063	-0.403408	-0.912217	-0.071572
20	2232956472													0.296131	0.178095	-0.260076	-0.355214	0.084784	0.930932	-0.843558	0.400031	-0.358308	-0.402781	-0.912571	-0.070577
21	2232973139													0.353356	0.066227	-0.230141	-0.356404	0.084333	0.930518	-0.843729	0.398776	-0.359304	-0.401370	-0.913162	-0.070972
22	2232989806													0.354842	-0.017546	-0.196219	-0.357646	0.082966	0.930165	-0.844018	0.397552	-0.359982	-0.399655	-0.913821	-0.072158
23	2233006473													0.294949	-0.070545	-0.177076	-0.358813	0.081838	0.929815	-0.844289	0.396329	-0.360692	-0.398031	-0.914454	-0.073114
24	2233023140													0.030530	-0.005755	-0.040115	-0.359936	0.081469	0.929413	-0.844445	0.395111	-0.361664	-0.396685	-0.915014	-0.073419
25	2233039807													0.061927	0.026750	-0.051834	-0.361099	0.080989	0.929004	-0.844444	0.394251	-0.362602	-0.395627	-0.915427	-0.073973
26	2233056474													0.242377	0.083460	-0.091993	-0.362634	0.080045	0.928488	-0.844302	0.393560	-0.363683	-0.394527	-0.915807	-0.075136
27	2233073141													0.416216	0.048414	-0.152649	-0.364669	0.077815	0.927880	-0.844057	0.393148	-0.364696	-0.393173	-0.916176	-0.077689
28	2233089808													0.310022	0.060389	-0.109153	-0.367288	0.074264	0.927138	-0.843647	0.393094	-0.365700	-0.391610	-0.916495	-0.081725
29	2233106475													-0.029987	0.082125	0.053261	-0.370943	0.069110	0.926081	-0.842920	0.393446	-0.366995	-0.389726	-0.916746	-0.087692
30	2233123142													-0.273548	0.074337	0.108253	-0.375946	0.062866	0.924507	-0.841570	0.394422	-0.369041	-0.387846	-0.916777	-0.095375
31	2233139809													-0.154929	-0.241427	0.241892	-0.382287	0.055954	0.922348	-0.839546	0.395963	-0.371989	-0.386030	-0.916560	-0.104395
32	2233156476													0.101711	-0.412530	0.205651	-0.389572	0.048531	0.919716	-0.837172	0.397588	-0.375588	-0.383896	-0.916280	-0.114260
33	2233173143													0.163159	-0.496781	0.175613	-0.397372	0.040802	0.916750	-0.834636	0.399159	-0.379545	-0.381416	-0.915973	-0.124560
34	2233189810													0.286257	-0.432873	0.203928	-0.405396	0.033660	0.913521	-0.832037	0.400336	-0.383987	-0.378641	-0.915750	-0.134288
35	2233206477													-0.143818	-0.256262	0.338127	-0.413623	0.027625	0.910029	-0.829238	0.401222	-0.389082	-0.375872	-0.915564	-0.143047
36	2233223144													-0.393008	-0.224152	0.272383	-0.422101	0.024155	0.906227	-0.825911	0.401903	-0.395405	-0.373766	-0.915364	-0.149694
37	2233239811													-0.035096	-0.224945	0.108350	-0.430726	0.022217	0.902209	-0.822200	0.402528	-0.402441	-0.372105	-0.915138	-0.155113
38	2233256478													0.183286	-0.223618	-0.021165	-0.439559	0.020681	0.897976	-0.818268	0.403089	-0.409825	-0.370439	-0.914927	-0.160259
39	2233273145													0.337610	-0.126889	-0.203004	-0.448612	0.018067	0.893544	-0.814339	0.403678	-0.417008	-0.368239	-0.914723	-0.166382
40	2233289812													0.262427	-0.104866	-0.278450	-0.457828	0.014328	0.888925	-0.810412	0.404394	-0.423908	-0.365550	-0.914473	-0.173532
41	2233306479													0.142438	-0.196331	-0.215765	-0.466603	0.010597	0.884403	-0.806614	0.405112	-0.430416	-0.362843	-0.914206	-0.180479
42	2233323146													0.096189	-0.145007	-0.227944	-0.474798	0.007254	0.880065	-0.802916	0.405923	-0.436522	-0.360405	-0.913878	-0.186907
43	2233339813													0.017046	-0.062836	-0.016194	-0.482981	0.003810	0.875623	-0.799170	0.406754	-0.442581	-0.357849	-0.913530	-0.193409
44	2233356480													-0.099535	0.162206	0.183326	-0.492020	-0.000436	0.870584	-0.794978	0.407837	-0.449086	-0.354861	-0.913054	-0.201011
45	2233373147													-0.498307	0.297036	0.638310	-0.502968	-0.005981	0.864284	-0.789779	0.409393	-0.456778	-0.351100	-0.912338	-0.210635
46	2233389814													-0.685203	0.399575	1.026328	-0.517228	-0.014188	0.855730	-0.783052	0.411373	-0.466479	-0.345406	-0.911357	-0.223883
47	2233406481													-0.857700	0.379267	1.500546	-0.535387	-0.025664	0.844217	-0.774480	0.413688	-0.478585	-0.336960	-0.910057	-0.241359
48	2233423148													-0.806228	0.036011	1.781394	-0.556839	-0.038793	0.829714	-0.763840	0.416339	-0.493164	-0.326310	-0.908382	-0.261465
49	2233439815													-0.399975	-0.533468	2.089322	-0.580406	-0.050020	0.812790	-0.750730	0.419560	-0.510269	-0.315490	-0.906348	-0.281066
50	2233456482													-0.220167	-0.900030	2.328208	-0.605085	-0.056164	0.794178	-0.734822	0.423343	-0.529922	-0.306447	-0.904227	-0.297429
51	2233473149													-0.346702	-0.732751	2.325252	-0.630500	-0.055692	0.774189	-0.715638	0.427927	-0.552033	-0.300553	-0.902096	-0.309663
52	2233489816													-0.214932	-0.599717	2.262120	-0.656727	-0.050485	0.752437	-0.693217	0.433252	-0.575971	-0.296917	-0.899858	-0.319525
53	2233506483													-0.171705	-0.381275	2.111937	-0.684110	-0.044233	0.728036	-0.667925	0.439013	-0.600953	-0.293035	-0.897391	-0.329878
54	2233523150													-0.219258	-0.518580	2.065687	-0.711863	-0.037032	0.701341	-0.640136	0.445025	-0.626242	-0.288923	-0.894752	-0.340502
55	2233539817													0.056034	-0.802111	1.802931	-0.738923	-0.027830	0.673215	-0.610245	0.451218	-0.651155	-0.285645	-0.891980	-0.350398
56	2233556484													0.223489	-0.849988	1.360873	-0.764806	-0.016744	0.644043	-0.578644	0.457389	-0.675253	-0.283272	-0.889109	-0.359503
57	2233573151													0.325676	-0.917081	1.033029	-0.788997	-0.002921	0.614390	-0.545460	0.463562	-0.698272	-0.282769	-0.886060	-0.367342
58	2233589818													0.314360	-0.713064	0.815220	-0.811143	0.013755	0.584686	-0.511017	0.469554	-0.719986	-0.284445	-0.882796	-0.373847
59	2233606485													0.103111	-0.168977	0.550824	-0.831784	0.031292	0.554217	-0.475462	0.475107	-0.740412	-0.286481	-0.879371	-0.380308
60	2233623152													-0.017531	0.241731	0.775148	-0.851913	0.046128	0.521648	-0.439100	0.479889	-0.759538	-0.285369	-0.876116	-0.388569
61	2233639819													0.062980	0.474243	0.842055	-0.872262	0.056086	0.485812	-0.402002	0.483463	-0.777598	-0.278485	-0.873566	-0.399160
62	2233656486													0.351754	-0.095923	0.810534	-0.891928	0.063947	0.447632	-0.363851	0.486263	-0.794456	-0.268470	-0.871469	-0.410445
63	2233673153													0.699910	-0.706706	0.638989	-0.909067	0.075661	0.409723	-0.324430	0.488466	-0.810028	-0.261424	-0.869296	-0.419501
64	2233689820													0.874474	-0.580256	0.315052	-0.922891	0.093913	0.373433	-0.283595	0.490245	-0.824157	-0.260473	-0.866510	-0.425809
65	2233706487													0.565874	0.143801	0.434732	-0.933950	0.116602	0.337849	-0.241361	0.491407	-0.836818	-0.263596	-0.863089	-0.430806
66	2233723154													0.556222	0.579276	0.163204	-0.943170	0.139686	0.301527	-0.198261	0.491651	-0.847922	-0.266689	-0.859515	-0.436016
67	2233739821													0.609067	0.757535	0.112214	-0.951308	0.159881	0.263535	-0.155034	0.490773	-0.857384	-0.266415	-0.856493	-0.442089
68	2233756488													0.538796	0.654853	-0.572586	-0.958293	0.177242	0.224187	-0.111969	0.488889	-0.865130	-0.262940	-0.854150	-0.448654
69	2233773155													0.735769	0.265897	-0.739503	-0.963542	0.193634	0.184642	-0.069162	0.486392	-0.870999	-0.258464	-0.852014	-0.455267
70	2233789822													0.766276	0.301518	-0.659715	-0.966551	0.210853	0.146014	-0.026774	0.483251	-0.875072	-0.255073	-0.849712	-0.461441
71	2233806489													0.865992	0.343434	-0.961592	-0.967132	0.229839	0.108762	0.015232	0.479337	-0.877499	-0.253817	-0.847001	-0.467083
72	2233823156													0.988124	0.789050	-0.280498	-0.965890	0.248764	0.071927	0.056860	0.474721	-0.878298	-0.252634	-0.844249	-0.472673
73	2233839823													0.765646	0.986277	-0.686310	-0.963642	0.265042	0.033869	0.098126	0.468937	-0.877764	-0.248527	-0.842527	-0.477894
74	2233856490													0.713731	0.531645	-0.839157	-0.960595	0.277896	-0.005535	0.138814	0.462392	-0.875742	-0.240806	-0.842002	-0.482748
75	2233873157													0.671010	0.261549	-0.709537	-0.955800	0.290631	-0.044495	0.179043	0.455293	-0.872154	-0.233216	-0.841571	-0.487204
76	2233889824													0.837280	-0.077653	-0.902004	-0.948664	0.305578	-0.081594	0.218783	0.447707	-0.867002	-0.228407	-0.840346	-0.491579
77	2233906491													0.642790	-0.389971	-1.372957	-0.939396	0.322312	-0.116835	0.257783	0.439398	-0.860510	-0.226015	-0.838477	-0.495856
78	2233923158													0.583232	-0.531930	-1.773623	-0.928222	0.340578	-0.149700	0.295561	0.430721	-0.852715	-0.225937	-0.835755	-0.500466
79	2233939825													0.506515	-0.744165	-2.074378	-0.915782	0.358889	-0.180395	0.331509	0.421702	-0.843960	-0.226816	-0.832686	-0.505162
80	2233956492													0.152230	-0.954837	-2.479320	-0.902403	0.377093	-0.208496	0.365170	0.412416	-0.834604	-0.228736	-0.829285	-0.509868
81	2233973159													0.020138	-1.188890	-2.762520	-0.888310	0.395359	-0.233661	0.396474	0.403440	-0.824648	-0.231763	-0.825183	-0.515130
82	2233989826													-0.094255	-1.276285	-3.096926	-0.873970	0.413483	-0.255358	0.424849	0.394927	-0.814577	-0.235966	-0.820405	-0.520822
83	2234006493													-0.347574	-1.127742	-3.340973	-0.860213	0.430131	-0.273901	0.449794	0.386955	-0.804954	-0.240248	-0.815631	-0.526334
84	2234023160													-0.470971	-0.807388	-3.242367	-0.847851	0.443663	-0.290365	0.471255	0.379507	-0.796174	-0.243037	-0.811873	-0.530844
85	2234039827													-0.716844	-0.649460	-3.275357	-0.837025	0.454338	-0.304904	0.489472	0.372680	-0.788370	-0.244555	-0.809127	-0.534328
86	2234056494													-0.550796	-0.822650	-3.284141	-0.827822	0.463339	-0.316271	0.504098	0.367002	-0.781789	-0.246162	-0.806614	-0.537381
87	2234073161													-0.610900	-0.900061	-3.697508	-0.820536	0.470871	-0.324039	0.514897	0.362735	-0.776727	-0.248198	-0.804179	-0.540087
88	2234089828													-0.822612	-0.829344	-4.108840	-0.815784	0.476067	-0.328416	0.521587	0.360244	-0.773416	-0.249888	-0.802237	-0.542191
89	2234106495													-1.045010	-1.018274	-4.691820	-0.814055	0.478298	-0.329463	0.523838	0.359684	-0.772154	-0.250817	-0.801161	-0.543353
90	2234123162													-0.924215	-1.375660	-4.860096	-0.815177	0.478858	-0.325855	0.521336	0.361463	-0.773016	-0.252381	-0.800025	-0.544302
91	2234139829													-0.704784	-1.125200	-4.652956	-0.818636	0.479188	-0.316566	0.514015	0.365463	-0.776032	-0.256172	-0.798007	-0.545491
92	2234156496													-0.712395	-0.675214	-4.542554	-0.824214	0.479166	-0.301781	0.501927	0.371427	-0.781096	-0.262185	-0.795262	-0.546642
93	2234173163													-0.796817	-0.409558	-4.725976	-0.832438	0.476186	-0.283361	0.485053	0.378965	-0.788105	-0.267901	-0.793493	-0.546441
94	2234189830													-0.622537	-0.478167	-4.769447	-0.843227	0.469279	-0.262192	0.463501	0.387664	-0.796796	-0.272277	-0.793406	-0.544400
95	2234206497													-0.379538	-0.625293	-4.728642	-0.855492	0.460454	-0.236886	0.437339	0.397556	-0.806650	-0.277250	-0.793682	-0.541480
96	2234223164													0.287376	-0.556420	-4.154629	-0.868159	0.451357	-0.206342	0.406564	0.408380	-0.817270	-0.284615	-0.793412	-0.538045
97	2234239831													0.525870	-0.632120	-4.128412	-0.880836	0.441446	-0.171036	0.371164	0.419670	-0.828321	-0.293880	-0.793097	-0.533509
98	2234256498													0.609381	-0.555133	-4.186563	-0.893440	0.429341	-0.132026	0.331194	0.431102	-0.839322	-0.303438	-0.793610	-0.527359
99	2234273165													0.744021	-0.471187	-4.284266	-0.905494	0.414783	-0.089639	0.286866	0.442644	-0.849573	-0.312710	-0.794998	-0.519799
100	2234289832													0.981857	-0.291248	-3.850334	-0.916039	0.398699	-0.043731	0.238534	0.453879	-0.858543	-0.322451	-0.796890	-0.510874
101	2234306499													1.264748	-0.212808	-3.706253	-0.924457	0.381241	0.005922	0.186101	0.464717	-0.865682	-0.332785	-0.799183	-0.500560
102	2234323166													1.444649	-0.057115	-3.596745	-0.929981	0.362805	0.059230	0.129747	0.474701	-0.870531	-0.343949	-0.801892	-0.488536
103	2234339833													2.046587	0.396641	-3.098260	-0.932519	0.342241	0.115237	0.069791	0.483890	-0.872341	-0.354313	-0.805433	-0.475122
104	2234356500													2.313134	0.732518	-2.034977	-0.932288	0.318030	0.172326	0.006729	0.491576	-0.870809	-0.361654	-0.810685	-0.460430
105	2234373167													2.490002	0.851580	-0.592402	-0.928295	0.292348	0.229784	-0.057460	0.497755	-0.865412	-0.367377	-0.816562	-0.445265
106	2234389834													2.297170	0.411193	0.219802	-0.918977	0.268926	0.288374	-0.121357	0.502941	-0.855758	-0.375171	-0.821419	-0.429555
107	2234406501													2.285241	-0.155449	0.728086	-0.902329	0.252755	0.349166	-0.183669	0.507375	-0.841924	-0.389959	-0.823823	-0.411396
108	2234423168													2.405809	-0.297708	0.700247	-0.878055	0.243731	0.411842	-0.244699	0.510916	-0.824067	-0.411268	-0.824354	-0.388972
109	2234439835													1.952027	0.883366	1.483040	-0.847515	0.239208	0.473811	-0.303960	0.513067	-0.802727	-0.435116	-0.824343	-0.362123
110	2234456502													1.917807	1.061476	1.651082	-0.814619	0.231683	0.531714	-0.361978	0.513211	-0.778194	-0.453176	-0.826400	-0.334207
111	2234473169													0.858182	1.635522	2.316789	-0.779947	0.221515	0.585332	-0.418118	0.511487	-0.750706	-0.465682	-0.830248	-0.306313
112	2234489836													0.973040	1.388316	2.938015	-0.743109	0.210942	0.635053	-0.471403	0.508541	-0.720531	-0.474941	-0.834799	-0.278463
113	2234506503													1.336441	1.017198	2.190036	-0.705285	0.196495	0.681148	-0.523409	0.503699	-0.687262	-0.478137	-0.841235	-0.252405
114	2234523170													1.061343	1.394507	1.703602	-0.668135	0.174535	0.723280	-0.574352	0.496976	-0.650488	-0.472985	-0.850031	-0.231803
115	2234539837													1.077242	1.312813	1.870915	-0.631458	0.144774	0.761775	-0.623953	0.488407	-0.610034	-0.460374	-0.860522	-0.218076
116	2234556504													-0.139064	1.455803	2.756717	-0.593473	0.111464	0.797098	-0.671172	0.478050	-0.566566	-0.444204	-0.871231	-0.208898
117	2234573171													0.135246	0.444185	3.760531	-0.552661	0.080416	0.829517	-0.713985	0.467710	-0.521030	-0.429873	-0.880216	-0.201069
118	2234589838													0.781048	-0.364119	3.711664	-0.509039	0.052744	0.859126	-0.752649	0.456987	-0.474006	-0.417611	-0.887908	-0.192926
119	2234606505													0.909586	-0.698682	3.781491	-0.463715	0.028649	0.885521	-0.786998	0.445752	-0.426543	-0.406943	-0.894698	-0.184155
120	2234623172													0.808080	-1.223402	3.850010	-0.416733	0.009837	0.908976	-0.817315	0.433647	-0.379403	-0.397907	-0.901029	-0.172675
121	2234639839													0.471106	-1.278048	3.827709	-0.368685	-0.001996	0.929552	-0.843749	0.420355	-0.333750	-0.390076	-0.907357	-0.156663
122	2234656506													-0.710880	-1.228577	3.694224	-0.320637	-0.005316	0.947187	-0.866348	0.405911	-0.290994	-0.382927	-0.913897	-0.134756
123	2234673173													-1.683465	-0.978267	3.464903	-0.274510	-0.000307	0.961584	-0.884872	0.391475	-0.252485	-0.376359	-0.920189	-0.107736
124	2234689840													-2.130730	-0.824994	3.114693	-0.233531	0.009683	0.972301	-0.899222	0.378300	-0.219746	-0.369949	-0.925632	-0.079637
125	2234706507													-2.707643	-0.526291	2.282133	-0.200620	0.019733	0.979470	-0.909802	0.367047	-0.193745	-0.363335	-0.929993	-0.055684
126	2234723174													-2.965092	-0.204751	1.215136	-0.177791	0.025658	0.983734	-0.917064	0.358245	-0.175086	-0.356910	-0.933275	-0.040163
127	2234739841													-2.802641	-0.302525	0.632017	-0.164907	0.026536	0.985952	-0.921640	0.351863	-0.163621	-0.351262	-0.935675	-0.033568
128	2234756508													-2.037864	-1.003448	0.533296	-0.159837	0.022981	0.986876	-0.924555	0.346829	-0.157820	-0.345904	-0.937647	-0.034189
129	2234773175													-1.424426	-2.091908	0.559567	-0.158631	0.020565	0.987124	-0.926565	0.342245	-0.156029	-0.341047	-0.939386	-0.035236
130	2234789842													-0.892250	-2.610070	0.466908	-0.157909	0.024877	0.987140	-0.928059	0.337739	-0.156969	-0.337301	-0.940911	-0.030245
131	2234806509													-0.737114	-2.018721	0.299413	-0.156034	0.037171	0.987052	-0.929168	0.333505	-0.159443	-0.335114	-0.942015	-0.017500
132	2234823176													-0.876857	-1.419332	0.036535	-0.153379	0.054604	0.986658	-0.929917	0.329768	-0.162809	-0.334259	-0.942481	0.000198
133	2234839843													-1.047263	-0.559938	-0.227325	-0.151292	0.072458	0.985830	-0.930355	0.326534	-0.166779	-0.333991	-0.942404	0.018010
134	2234856510													-1.003834	0.224808	-0.582636	-0.151372	0.084864	0.984827	-0.930591	0.323703	-0.170930	-0.333298	-0.942345	0.029974
135	2234873177													-1.032614	0.299381	-0.466331	-0.154561	0.089207	0.983948	-0.930498	0.321613	-0.175323	-0.332090	-0.942660	0.033298
136	2234889844													-1.226849	0.034751	-0.229930	-0.160776	0.086409	0.983201	-0.929944	0.320499	-0.180235	-0.330689	-0.943299	0.028827
137	2234906511													-1.414728	-0.211396	-0.010025	-0.169385	0.079237	0.982360	-0.928854	0.320367	-0.186000	-0.329453	-0.943974	0.019334
138	2234923178													-1.489276	-0.297358	0.104554	-0.180735	0.068679	0.981131	-0.927175	0.320931	-0.193261	-0.328148	-0.944609	0.005674
139	2234939845													-1.739214	-0.271595	0.178588	-0.195863	0.054089	0.979138	-0.924644	0.322362	-0.202770	-0.326604	-0.945070	-0.013126
140	2234956512													-2.054083	-0.303185	0.607577	-0.216203	0.034543	0.975737	-0.920927	0.324700	-0.215553	-0.324268	-0.945186	-0.038389
141	2234973179													-2.433407	-0.308624	1.120769	-0.243282	0.008416	0.969919	-0.915647	0.327914	-0.232514	-0.320007	-0.944670	-0.072069
142	2234989846													-2.935944	-0.494445	1.794209	-0.277800	-0.023936	0.960341	-0.908199	0.332321	-0.254434	-0.313052	-0.942862	-0.114058
143	2235006513													-2.933536	-1.077837	2.586153	-0.319118	-0.059333	0.945856	-0.897817	0.338501	-0.281676	-0.303461	-0.939093	-0.161292
144	2235023180													-2.269280	-1.650070	3.321425	-0.365683	-0.093846	0.925996	-0.883901	0.346653	-0.313928	-0.291538	-0.933287	-0.209716
145	2235039847													-1.574638	-2.325735	3.897561	-0.415536	-0.123578	0.901143	-0.865962	0.356858	-0.350376	-0.278281	-0.925949	-0.255301
146	2235056514													-1.035912	-2.559416	4.106635	-0.466749	-0.144721	0.872468	-0.843472	0.369447	-0.389955	-0.265897	-0.917913	-0.294507
147	2235073181													-0.962732	-2.297002	4.181743	-0.518566	-0.155734	0.840736	-0.815848	0.384391	-0.432013	-0.255892	-0.909940	-0.326387
148	2235089848													-0.658485	-2.089774	4.218333	-0.570322	-0.156502	0.806374	-0.782765	0.401152	-0.475769	-0.249020	-0.902543	-0.351290
149	2235106515													-0.556512	-1.389494	3.913636	-0.621472	-0.149208	0.769096	-0.744368	0.418596	-0.520281	-0.244311	-0.895831	-0.371212
150	2235123182													-0.546585	-0.831299	3.726947	-0.671684	-0.136090	0.728230	-0.700666	0.435988	-0.564784	-0.240639	-0.889603	-0.388200
151	2235139849													-0.300168	-0.760491	3.863377	-0.720010	-0.117487	0.683947	-0.651745	0.452994	-0.608296	-0.238357	-0.883738	-0.402732
152	2235156516													-0.177033	-0.251227	4.036070	-0.765188	-0.091025	0.637340	-0.597174	0.470253	-0.649804	-0.240563	-0.877825	-0.414190
153	2235173183													0.781235	-0.073823	3.681225	-0.806647	-0.059084	0.588073	-0.537427	0.487382	-0.688209	-0.245954	-0.871188	-0.424899
154	2235189850													1.387886	0.362175	2.994400	-0.844287	-0.024959	0.535310	-0.473429	0.502771	-0.723247	-0.251087	-0.864059	-0.436299
155	2235206517													1.147085	1.057716	2.664951	-0.878121	0.008389	0.478366	-0.406107	0.515539	-0.754518	-0.252946	-0.856825	-0.449298
156	2235223184													1.512340	1.260782	2.447469	-0.907896	0.040330	0.417251	-0.335993	0.525186	-0.781849	-0.250666	-0.850031	-0.463264
157	2235239851													2.092745	1.039837	1.789895	-0.932864	0.071585	0.353045	-0.263986	0.530994	-0.805206	-0.245106	-0.844347	-0.476447
158	2235256518													2.205856	1.142964	0.893290	-0.952128	0.103990	0.287469	-0.190716	0.532860	-0.824431	-0.238914	-0.839789	-0.487519
159	2235273185													2.491632	1.358230	0.556537	-0.965163	0.138746	0.221832	-0.116577	0.530988	-0.839322	-0.234242	-0.835943	-0.496316
160	2235289852													2.782351	1.528001	-0.240207	-0.972122	0.174680	0.156415	-0.042442	0.524980	-0.850056	-0.230602	-0.832996	-0.502931
161	2235306519													2.708576	1.780966	-0.524927	-0.973233	0.210937	0.091234	0.031366	0.515174	-0.856511	-0.227671	-0.830723	-0.508001
162	2235323186													2.894039	2.066745	-0.650404	-0.968937	0.245887	0.026467	0.103988	0.502181	-0.858488	-0.224382	-0.829068	-0.512151
163	2235339853													2.853346	1.756203	-2.024941	-0.959982	0.277438	-0.038244	0.174657	0.486324	-0.856145	-0.218928	-0.828563	-0.515318
164	2235356520													2.916216	1.072470	-2.390843	-0.946522	0.306301	-0.101370	0.242583	0.468474	-0.849521	-0.212720	-0.828681	-0.517724
165	2235373187													2.621614	0.872413	-3.170945	-0.928580	0.334600	-0.160567	0.307076	0.449706	-0.838731	-0.208431	-0.828135	-0.520336
166	2235389854													2.532137	0.558890	-3.879723	-0.907080	0.361610	-0.215507	0.367482	0.430497	-0.824396	-0.205335	-0.826989	-0.523381
167	2235406521													1.892128	0.639920	-3.999513	-0.882967	0.386263	-0.266777	0.423704	0.411096	-0.807140	-0.202097	-0.825713	-0.526645
168	2235423188													1.564023	0.354998	-4.275295	-0.857359	0.407255	-0.314767	0.475336	0.391856	-0.787721	-0.197460	-0.824980	-0.529545
169	2235439855													1.165083	-0.015275	-4.482502	-0.830827	0.425556	-0.358649	0.522032	0.372552	-0.767259	-0.192896	-0.824686	-0.531680
170	2235456522													0.840656	-0.356819	-4.358144	-0.803117	0.444348	-0.396935	0.564299	0.353440	-0.746088	-0.191229	-0.823186	-0.534599
171	2235473189													0.679856	-0.764996	-4.186472	-0.773981	0.467054	-0.427567	0.602326	0.334741	-0.724674	-0.195337	-0.818419	-0.540401
172	2235489856													0.434900	-1.011831	-4.104008	-0.743474	0.494931	-0.449767	0.636305	0.316533	-0.703507	-0.205821	-0.809228	-0.550261
173	2235506523													0.315244	-1.319498	-4.118097	-0.711491	0.528311	-0.463324	0.666608	0.298869	-0.682870	-0.222295	-0.794711	-0.564819
174	2235523190													-0.401947	-1.128342	-4.165750	-0.679089	0.564110	-0.469699	0.693115	0.282058	-0.663351	-0.241721	-0.776030	-0.582536
175	2235539857													-1.074042	-0.328565	-4.027265	-0.649128	0.595496	-0.473305	0.715532	0.266840	-0.645608	-0.258160	-0.757747	-0.599310
176	2235556524													-1.534631	-0.709578	-4.524134	-0.625433	0.616399	-0.478420	0.733202	0.254520	-0.630582	-0.266923	-0.745166	-0.611130
177	2235573191													-1.472886	-1.810178	-4.961504	-0.609673	0.627666	-0.484082	0.745390	0.246255	-0.619478	-0.269617	-0.738508	-0.617991
178	2235589858													-1.605176	-2.902626	-5.614962	-0.601775	0.633008	-0.487000	0.751735	0.242984	-0.613069	-0.269744	-0.735024	-0.622076
179	2235606525													-1.550534	-3.450067	-6.039586	-0.601501	0.634903	-0.484865	0.752002	0.245160	-0.611874	-0.269611	-0.732662	-0.624913
180	2235623192													-1.177173	-2.951121	-5.914177	-0.608637	0.633591	-0.477623	0.746101	0.252180	-0.616229	-0.269990	-0.731415	-0.626209
181	2235639859													-0.968111	-1.584361	-5.297700	-0.623076	0.627480	-0.466953	0.734152	0.263235	-0.625882	-0.269810	-0.732786	-0.624682
182	2235656526													-0.779957	-0.610348	-4.796915	-0.644374	0.614322	-0.455402	0.716680	0.277408	-0.639855	-0.266745	-0.738683	-0.619027
183	2235673193													-0.276664	-0.910887	-4.678026	-0.671266	0.593992	-0.443369	0.694096	0.293866	-0.657171	-0.260063	-0.748877	-0.609549
184	2235689860													0.490368	-1.578473	-4.407108	-0.700983	0.571025	-0.427262	0.666667	0.311848	-0.676983	-0.253334	-0.759395	-0.599284
185	2235706527													0.828138	-1.934960	-4.210701	-0.730114	0.551827	-0.403014	0.635236	0.330777	-0.697899	-0.251812	-0.765554	-0.592045
186	2235723194													1.104861	-1.775195	-4.133862	-0.757131	0.539375	-0.368547	0.599954	0.350904	-0.718973	-0.258471	-0.765468	-0.589280
187	2235739861													0.924818	-0.858733	-4.108400	-0.781729	0.532154	-0.325134	0.560800	0.371834	-0.739759	-0.272769	-0.760626	-0.589105
188	2235756528													0.688571	-0.474682	-4.671179	-0.805614	0.523861	-0.276687	0.516959	0.393477	-0.760217	-0.289378	-0.755477	-0.587805
189	2235773195													0.569192	-0.132717	-5.200689	-0.830280	0.509421	-0.226107	0.467305	0.415195	-0.780538	-0.303744	-0.753727	-0.582783
190	2235789862													0.611502	0.696786	-4.737406	-0.855048	0.488594	-0.173692	0.411825	0.436297	-0.800028	-0.315108	-0.755593	-0.574270
191	2235806529													1.066026	1.226198	-3.442852	-0.876468	0.467021	-0.117031	0.352440	0.456748	-0.816803	-0.328010	-0.757148	-0.564922
192	2235823196													1.668462	1.368755	-3.402911	-0.893661	0.445295	-0.055523	0.289077	0.476629	-0.830216	-0.343227	-0.757982	-0.554669
193	2235839863													1.976919	1.485664	-4.040102	-0.909583	0.415484	0.005588	0.220833	0.494754	-0.840507	-0.351982	-0.763277	-0.541773
194	2235856530													2.385163	0.831680	-4.087005	-0.925809	0.372713	0.062954	0.147488	0.509541	-0.847712	-0.348030	-0.775534	-0.526708
195	2235873197													1.838801	1.228969	-1.796196	-0.936934	0.327609	0.121770	0.071607	0.520946	-0.850581	-0.342093	-0.788218	-0.511551
196	2235889864													2.796620	0.343237	0.120214	-0.936990	0.294165	0.188460	-0.003844	0.530734	-0.847530	-0.349336	-0.794851	-0.496162
197	2235906531													3.143861	0.955453	0.543940	-0.925920	0.272028	0.262055	-0.079588	0.537699	-0.839372	-0.369239	-0.798048	-0.476217
198	2235923198													2.094595	2.724108	-0.617657	-0.910338	0.246076	0.332763	-0.156032	0.540642	-0.826656	-0.383326	-0.804458	-0.453772
199	2235939865													2.710044	1.544873	0.323462	-0.894818	0.206626	0.395736	-0.233163	0.539630	-0.808971	-0.380705	-0.816153	-0.434693
200	2235956532													2.085954	0.829347	2.044065	-0.874372	0.164373	0.456570	-0.309960	0.534740	-0.786116	-0.373362	-0.828876	-0.416612
201	2235973199													0.644167	0.922736	5.900961	-0.843913	0.136804	0.518745	-0.381171	0.527530	-0.759224	-0.377518	-0.838449	-0.393044
202	2235989866													-0.145116	1.310390	6.713520	-0.805962	0.123301	0.578984	-0.444758	0.519335	-0.729714	-0.390661	-0.845629	-0.363725
203	2236006533													-0.572153	2.461993	5.376456	-0.769267	0.107814	0.629765	-0.500721	0.510514	-0.699037	-0.396870	-0.853083	-0.338737
204	2236023200													-0.177072	1.680739	4.517597	-0.738777	0.078807	0.669327	-0.551005	0.501244	-0.667194	-0.388076	-0.861710	-0.326884
205	2236039867													0.567072	-0.286275	4.044270	-0.710370	0.043639	0.702474	-0.596878	0.491552	-0.634124	-0.372975	-0.869754	-0.323137
206	2236056534													1.194803	-1.362816	2.924846	-0.679092	0.012758	0.733942	-0.639002	0.481799	-0.599622	-0.361263	-0.876189	-0.319033
207	2236073201													1.242401	-1.596747	2.412251	-0.642514	-0.006960	0.766242	-0.677641	0.471998	-0.563933	-0.357740	-0.881572	-0.307982
208	2236089868													0.534195	-0.635306	2.304468	-0.600867	-0.014960	0.799209	-0.713033	0.461954	-0.527430	-0.361307	-0.886778	-0.288240
209	2236106535													0.047424	0.453432	2.349253	-0.556624	-0.017867	0.830573	-0.746046	0.450598	-0.490283	-0.365494	-0.892548	-0.264143
210	2236123202													-0.195433	0.866553	2.651067	-0.513170	-0.023385	0.857968	-0.777240	0.436698	-0.452982	-0.364081	-0.899304	-0.242276
211	2236139869													-0.168719	0.014747	3.116519	-0.471664	-0.032116	0.881193	-0.806374	0.420060	-0.416306	-0.356784	-0.906928	-0.224025
212	2236156536													0.068179	-0.993998	3.135736	-0.431651	-0.038587	0.901215	-0.832376	0.402039	-0.381465	-0.347604	-0.914809	-0.205660
213	2236173203													0.067983	-1.341366	2.819979	-0.393109	-0.036418	0.918770	-0.854126	0.384474	-0.350211	-0.340489	-0.922417	-0.182246
214	2236189870													-0.525024	-0.631936	2.049717	-0.356434	-0.023409	0.934027	-0.871569	0.368516	-0.323363	-0.336635	-0.929327	-0.151754
215	2236206537													-1.332821	-0.639783	2.008744	-0.322939	0.000484	0.946420	-0.884631	0.355249	-0.302037	-0.336361	-0.934772	-0.114296
216	2236223204													-1.746138	-0.407510	1.725664	-0.293628	0.032732	0.955359	-0.894146	0.344039	-0.286602	-0.338062	-0.938385	-0.071752
217	2236239871													-1.473035	-0.145500	1.113287	-0.270542	0.065313	0.960490	-0.901212	0.333683	-0.276535	-0.338561	-0.940420	-0.031414
218	2236256538													-1.418078	-0.109203	0.865161	-0.254561	0.092324	0.962640	-0.906814	0.323056	-0.270782	-0.335986	-0.941866	0.001483
219	2236273205													-1.560504	-0.301103	0.788791	-0.245167	0.112752	0.962902	-0.911368	0.311898	-0.268568	-0.330608	-0.943402	0.026292
220	2236289872													-1.378669	-1.088700	0.664669	-0.240203	0.129791	0.962007	-0.914748	0.301396	-0.269066	-0.324867	-0.944624	0.046330
221	2236306539													-1.523017	-1.630400	0.698051	-0.237589	0.145650	0.960384	-0.916873	0.292868	-0.271240	-0.320772	-0.944994	0.063960
222	2236323206													-1.724149	-1.748979	0.565726	-0.237232	0.158719	0.958399	-0.917792	0.286734	-0.274666	-0.318400	-0.944771	0.077649
223	2236339873													-1.757877	-1.507631	0.373343	-0.240091	0.164957	0.956632	-0.917539	0.283224	-0.279117	-0.316983	-0.944761	0.083355
224	2236356540													-2.131972	-1.283232	0.361030	-0.247554	0.161158	0.955377	-0.916006	0.282348	-0.284980	-0.315675	-0.945679	0.077725
225	2236373207													-2.727679	-1.193526	0.597150	-0.261406	0.146240	0.954086	-0.912845	0.283750	-0.293599	-0.313658	-0.947681	0.059320
226	2236389874													-3.415906	-1.044036	1.243081	-0.283407	0.118716	0.951623	-0.907585	0.287348	-0.306139	-0.309790	-0.950441	0.026308
227	2236406541													-3.532287	-1.431764	2.014636	-0.314674	0.080504	0.945780	-0.899530	0.292803	-0.324209	-0.303027	-0.952778	-0.019721
228	2236423208													-3.036639	-2.327475	3.111787	-0.354716	0.035543	0.934298	-0.887938	0.300149	-0.348534	-0.292817	-0.953230	-0.074908
229	2236439875													-2.263670	-3.391743	4.207563	-0.401413	-0.008664	0.915856	-0.871869	0.309919	-0.379202	-0.280556	-0.950723	-0.131960
230	2236456542													-1.664121	-4.097932	4.917044	-0.452393	-0.044142	0.890726	-0.850093	0.323275	-0.415735	-0.269597	-0.945275	-0.183772
231	2236473209													-1.590562	-3.970737	5.644436	-0.505433	-0.065129	0.860404	-0.821747	0.340482	-0.456951	-0.263191	-0.937993	-0.225611
232	2236489876													-1.719963	-3.006715	6.200235	-0.560097	-0.073751	0.825138	-0.786376	0.360635	-0.501552	-0.260583	-0.929787	-0.259986
233	2236506543													-1.762728	-1.427569	6.611433	-0.616947	-0.077392	0.783190	-0.743805	0.382512	-0.548123	-0.257160	-0.920703	-0.293554
234	2236523210													-1.435061	-0.718779	7.187006	-0.676169	-0.081019	0.732278	-0.693608	0.405121	-0.595639	-0.248403	-0.910666	-0.330126
235	2236539877													-0.604597	-0.605216	7.045618	-0.735581	-0.084145	0.672191	-0.635922	0.427784	-0.642342	-0.233502	-0.899956	-0.368179
236	2236556544													0.126653	-1.131643	6.876875	-0.792042	-0.080362	0.605154	-0.570474	0.450328	-0.686851	-0.217321	-0.889239	-0.402524
237	2236573211													0.818516	-0.894583	6.098910	-0.843203	-0.064535	0.533708	-0.497052	0.471810	-0.728241	-0.204812	-0.879335	-0.429908
238	2236589878													1.645435	-0.604570	4.977440	-0.887191	-0.034651	0.460099	-0.416017	0.491346	-0.765185	-0.199553	-0.870275	-0.450334
239	2236606545													2.217828	-0.140609	3.667625	-0.922740	0.007839	0.385342	-0.328384	0.507426	-0.796670	-0.201778	-0.861660	-0.465648
240	2236623212													2.138856	1.002941	2.663734	-0.949197	0.058417	0.309212	-0.235822	0.518559	-0.821878	-0.208356	-0.853044	-0.478439
241	2236639879													2.299946	1.928619	1.912155	-0.966272	0.112633	0.231586	-0.140195	0.524272	-0.839931	-0.216018	-0.844069	-0.490799
242	2236656546													3.102157	2.366716	0.495668	-0.974514	0.165253	0.151703	-0.043543	0.524051	-0.850573	-0.220060	-0.835501	-0.503500
243	2236673213													3.430299	3.226707	-0.091895	-0.974414	0.213693	0.069667	0.052565	0.518024	-0.853749	-0.218530	-0.828243	-0.516003
244	2236689880													3.821155	3.152818	-1.010203	-0.965673	0.259457	-0.012569	0.147225	0.506807	-0.849395	-0.214011	-0.822088	-0.527608
245	2236706547													4.437445	3.220792	-1.250899	-0.948234	0.303673	-0.092921	0.239293	0.490865	-0.837730	-0.208784	-0.816599	-0.538122
246	2236723214													4.523784	3.370031	-2.795495	-0.922620	0.345887	-0.170686	0.327898	0.470325	-0.819315	-0.203113	-0.811884	-0.547347
247	2236739881													4.430922	3.535793	-3.194195	-0.890059	0.383789	-0.245970	0.411895	0.445949	-0.794652	-0.195288	-0.808601	-0.555001
248	2236756548													4.003547	3.574677	-3.732354	-0.851129	0.418089	-0.317461	0.490572	0.418193	-0.764496	-0.186868	-0.806422	-0.561039
249	2236773215													4.153095	3.560355	-4.172027	-0.806727	0.448206	-0.385101	0.563669	0.388029	-0.729185	-0.177395	-0.805323	-0.565674
250	2236789882													4.435988	2.807237	-5.198868	-0.758127	0.473853	-0.448004	0.630226	0.355931	-0.690021	-0.167510	-0.805467	-0.568475
251	2236806549													3.767491	1.280714	-6.258690	-0.706603	0.496259	-0.504420	0.689530	0.322782	-0.648352	-0.158933	-0.805940	-0.570264
252	2236823216													2.969724	-0.319067	-6.934961	-0.652486	0.520679	-0.550596	0.741725	0.289942	-0.604795	-0.155263	-0.803011	-0.575384
253	2236839883													1.480590	-1.741991	-8.066093	-0.597609	0.550062	-0.583349	0.786103	0.258761	-0.561324	-0.157815	-0.794024	-0.587043
254	2236856550													-0.711898	-3.524711	-9.152988	-0.545787	0.581976	-0.602844	0.821722	0.230946	-0.520997	-0.163983	-0.779723	-0.604269
255	2236873217													-1.842425	-4.631658	-9.421265	-0.501071	0.614898	-0.608957	0.848007	0.208478	-0.487258	-0.172660	-0.760551	-0.625900
256	2236889884													-3.634413	-4.937981	-9.599543	-0.467312	0.645699	-0.603898	0.864990	0.192699	-0.463314	-0.182790	-0.738878	-0.648573
257	2236906551													-5.079495	-4.420820	-9.411874	-0.447935	0.669444	-0.592621	0.873087	0.184781	-0.451193	-0.192543	-0.719515	-0.667253
258	2236923218													-5.377100	-3.351326	-9.137554	-0.444825	0.682460	-0.579982	0.872781	0.185010	-0.451691	-0.200959	-0.707120	-0.677935
259	2236939885													-4.750579	-1.967802	-8.523569	-0.458077	0.682437	-0.569600	0.864481	0.192811	-0.464216	-0.206973	-0.705055	-0.678276
260	2236956552													-3.552380	-0.864801	-7.965807	-0.485776	0.668823	-0.562759	0.848755	0.207065	-0.486559	-0.208894	-0.714003	-0.668254
261	2236973219													-2.301225	-0.192364	-6.943812	-0.525018	0.641185	-0.559677	0.826208	0.226116	-0.515997	-0.204297	-0.733316	-0.648467
262	2236989886													-1.340385	-0.309764	-5.984925	-0.571529	0.602654	-0.556922	0.797581	0.248415	-0.549686	-0.192923	-0.758352	-0.622642
263	2237006553													-0.258969	-1.350907	-5.339725	-0.620630	0.561866	-0.546924	0.763257	0.273131	-0.585524	-0.179604	-0.780837	-0.598361
264	2237023220													0.260604	-2.525451	-5.474312	-0.668388	0.529411	-0.522477	0.723619	0.300244	-0.621474	-0.172144	-0.793460	-0.583771
265	2237039887													0.717733	-3.079436	-6.205738	-0.713288	0.509731	-0.481034	0.678397	0.329717	-0.656555	-0.176061	-0.794645	-0.580983
266	2237056554													1.150775	-2.392986	-6.657233	-0.754786	0.501311	-0.423066	0.626828	0.361099	-0.690431	-0.193352	-0.786317	-0.586788
267	2237073221													1.044854	-0.771028	-6.801749	-0.792798	0.496790	-0.353088	0.568323	0.393278	-0.722732	-0.220184	-0.773648	-0.594127
268	2237089888													0.889299	1.757457	-6.298888	-0.828513	0.485497	-0.279032	0.502616	0.425072	-0.752789	-0.246869	-0.763941	-0.596196
269	2237106555													0.871561	3.249053	-5.494125	-0.863958	0.458832	-0.207485	0.429077	0.455105	-0.780239	-0.263571	-0.763121	-0.590065
270	2237123222													1.750884	2.935446	-4.859061	-0.898675	0.416019	-0.138964	0.347789	0.482828	-0.803691	-0.267255	-0.770588	-0.578592
271	2237139889													3.767611	1.394869	-4.223057	-0.928917	0.363761	-0.069224	0.259698	0.506739	-0.822054	-0.263952	-0.781597	-0.565186
272	2237156556													4.919670	0.981774	-2.954744	-0.950096	0.311902	0.005816	0.167576	0.526006	-0.833808	-0.263126	-0.791224	-0.552023
273	2237173223													5.141522	2.090374	-0.252856	-0.960502	0.264681	0.085911	0.073777	0.539892	-0.838495	-0.268316	-0.799037	-0.538094
274	2237189890													4.195700	2.804933	2.221059	-0.960464	0.222202	0.167737	-0.019258	0.548021	-0.836243	-0.277738	-0.806411	-0.522075
275	2237206557													4.051176	2.152511	3.031793	-0.951371	0.181966	0.248558	-0.110878	0.550523	-0.827424	-0.287400	-0.814747	-0.503576
276	2237223224													4.053942	1.758965	2.320763	-0.934870	0.140379	0.326054	-0.201227	0.547107	-0.812515	-0.292446	-0.825207	-0.483226
277	2237239891													4.515275	0.565058	1.542365	-0.911254	0.096402	0.400403	-0.290622	0.538351	-0.791023	-0.291813	-0.837189	-0.462558
278	2237256558													3.761885	0.462167	3.377344	-0.877095	0.061598	0.476351	-0.377412	0.525046	-0.762815	-0.297094	-0.848842	-0.437267
279	2237273225													3.128693	1.727098	5.345532	-0.832066	0.040849	0.553171	-0.458924	0.509431	-0.727921	-0.311537	-0.859541	-0.405134
280	2237289892													3.568305	1.530061	5.106442	-0.780918	0.022329	0.624234	-0.535020	0.491847	-0.686906	-0.322366	-0.870395	-0.372146
281	2237306559													3.911600	0.414086	5.020156	-0.725634	0.001062	0.688080	-0.606062	0.472501	-0.639868	-0.325798	-0.881329	-0.342219
282	2237323226													4.140045	-1.117134	5.341808	-0.663529	-0.014401	0.748012	-0.671596	0.452043	-0.587040	-0.329680	-0.891880	-0.309616
283	2237339893													3.178786	-1.937786	6.381485	-0.592575	-0.014268	0.805389	-0.730262	0.431490	-0.529655	-0.339960	-0.902005	-0.266109
284	2237356560													0.927837	-1.140034	7.205269	-0.513877	0.002677	0.857860	-0.781296	0.411505	-0.469297	-0.354270	-0.911404	-0.209371
285	2237373227													-0.918301	0.006370	7.278694	-0.433027	0.030862	0.900853	-0.823574	0.392648	-0.409332	-0.366351	-0.919171	-0.144610
286	2237389894													-1.992997	0.383551	6.897617	-0.357797	0.059412	0.931907	-0.856911	0.375670	-0.352953	-0.371059	-0.924847	-0.083503
287	2237406561													-3.044939	0.145842	5.742281	-0.295539	0.078636	0.952089	-0.881625	0.361407	-0.303516	-0.367959	-0.929086	-0.037483
288	2237423228													-3.867728	0.215027	3.954420	-0.251088	0.084637	0.964257	-0.898307	0.350686	-0.264696	-0.360554	-0.932661	-0.012023
289	2237439895													-4.641394	0.184476	2.333914	-0.225235	0.075919	0.971342	-0.908731	0.343193	-0.237541	-0.351392	-0.936192	-0.008309
290	2237456562													-4.963623	-0.876130	1.717849	-0.214835	0.055932	0.975048	-0.915195	0.337025	-0.220980	-0.340975	-0.939833	-0.021216
291	2237473229													-4.296170	-2.471982	1.571976	-0.214788	0.031638	0.976148	-0.919332	0.330840	-0.213010	-0.329688	-0.943156	-0.041975
292	2237489896													-3.250148	-3.823859	1.555239	-0.220004	0.012761	0.975415	-0.921558	0.325177	-0.212111	-0.319890	-0.945567	-0.059781
293	2237506563													-2.254065	-4.494160	1.397857	-0.226324	0.006847	0.974028	-0.921967	0.321109	-0.216484	-0.314251	-0.947018	-0.066362
294	2237523230													-1.803476	-4.055702	1.020416	-0.231547	0.015591	0.972699	-0.920923	0.318710	-0.224331	-0.313507	-0.947724	-0.059438
295	2237539897													-1.876235	-2.566830	0.322106	-0.236278	0.033060	0.971123	-0.918900	0.317320	-0.234374	-0.315905	-0.947742	-0.044597
296	2237556564													-2.211298	-0.936394	-0.173659	-0.243287	0.049682	0.968681	-0.916080	0.316434	-0.246305	-0.318761	-0.947313	-0.031472
297	2237573231													-2.572895	0.044457	-0.042106	-0.255301	0.057895	0.965127	-0.912314	0.316119	-0.260294	-0.320165	-0.946951	-0.027887
298	2237589898													-2.522971	0.484562	0.410708	-0.274551	0.053520	0.960082	-0.907083	0.316920	-0.277062	-0.319097	-0.946941	-0.038464
299	2237606565													-2.726919	0.660632	0.969894	-0.302247	0.034478	0.952606	-0.899948	0.319111	-0.297089	-0.314230	-0.947090	-0.065422
300	2237623232													-2.902559	-0.101860	1.879270	-0.337551	0.003844	0.941299	-0.890526	0.322707	-0.320661	-0.304997	-0.946491	-0.105507
301	2237639899													-2.509831	-1.194478	2.676081	-0.378102	-0.030942	0.925247	-0.878371	0.327672	-0.347988	-0.292410	-0.944285	-0.151072
302	2237656566													-2.039327	-2.102834	3.214253	-0.421491	-0.062282	0.904691	-0.862978	0.334039	-0.379060	-0.278593	-0.940499	-0.194543
303	2237673233													-1.825686	-2.383420	3.647630	-0.466193	-0.084396	0.880649	-0.843605	0.342215	-0.413787	-0.266449	-0.935824	-0.230735
304	2237689900													-1.686232	-1.443825	3.749455	-0.512213	-0.097726	0.853280	-0.819747	0.352025	-0.451767	-0.256227	-0.930875	-0.260422
305	2237706567													-1.795880	-0.561094	4.192034	-0.560622	-0.108589	0.820921	-0.791124	0.363062	-0.492248	-0.244592	-0.925416	-0.289448
306	2237723234													-1.454156	-0.173739	4.347530	-0.611379	-0.121513	0.781953	-0.757755	0.374706	-0.534231	-0.228087	-0.919146	-0.321165
307	2237739901													-0.710676	-0.679839	4.285311	-0.662675	-0.135127	0.736615	-0.719711	0.386865	-0.576500	-0.207070	-0.912182	-0.353618
308	2237756568													-0.169335	-1.218868	4.328169	-0.712395	-0.143977	0.686851	-0.676854	0.399489	-0.618286	-0.185371	-0.905362	-0.382045
309	2237773235													0.350394	-0.938687	3.785877	-0.759268	-0.145200	0.634373	-0.629210	0.412670	-0.658634	-0.166153	-0.899233	-0.404688
310	2237789902													0.366187	-0.259029	3.787003	-0.803582	-0.141887	0.578034	-0.576661	0.426062	-0.697089	-0.147370	-0.893498	-0.424196
311	2237806569													0.485241	0.109946	4.164376	-0.845263	-0.137143	0.516451	-0.519264	0.438853	-0.733330	-0.126075	-0.888031	-0.442160
312	2237823236													1.363961	-0.139737	3.548880	-0.883524	-0.131537	0.449537	-0.457196	0.450733	-0.766689	-0.101773	-0.882914	-0.458371
313	2237839903													2.277682	-1.343617	2.521648	-0.916946	-0.119419	0.380721	-0.390760	0.461792	-0.796276	-0.080724	-0.878912	-0.470103
314	2237856570													2.406593	-1.439602	2.199751	-0.944582	-0.095195	0.314169	-0.320723	0.471713	-0.821355	-0.070009	-0.876598	-0.476103
315	2237873237													2.319349	-0.372497	1.326880	-0.966525	-0.060893	0.249242	-0.247312	0.479741	-0.841835	-0.068310	-0.875295	-0.478741
316	2237889904													2.474104	0.309797	1.598671	-0.982688	-0.022640	0.183881	-0.171617	0.485175	-0.857410	-0.069802	-0.874124	-0.480661
317	2237906571													2.455509	1.846931	1.709633	-0.993235	0.013299	0.115360	-0.094298	0.487388	-0.868079	-0.067770	-0.873084	-0.482837
318	2237923238													2.886106	1.832327	1.481680	-0.998119	0.044121	0.042565	-0.015742	0.486577	-0.873496	-0.059250	-0.872523	-0.484967
319	2237939905													3.664845	1.059436	0.814408	-0.996831	0.072848	-0.031966	0.063302	0.482975	-0.873343	-0.048183	-0.872599	-0.486056
320	2237956572													4.044195	1.136174	0.130206	-0.989077	0.102795	-0.105640	0.142186	0.476451	-0.867627	-0.038856	-0.873171	-0.485863
321	2237973239													4.277925	1.620691	-0.311292	-0.974723	0.135804	-0.177404	0.220897	0.466906	-0.856273	-0.033454	-0.873817	-0.485102
322	2237989906													4.545522	1.916175	-0.711120	-0.953761	0.171378	-0.246919	0.298889	0.454144	-0.839297	-0.031700	-0.874290	-0.484367
323	2238006573													4.229502	1.795046	-2.110707	-0.926361	0.208774	-0.313479	0.375145	0.437431	-0.817264	-0.033498	-0.874681	-0.483540
324	2238023240													3.723514	1.710029	-3.390800	-0.893444	0.245844	-0.375925	0.447588	0.416980	-0.791070	-0.037727	-0.875036	-0.482585
325	2238039907													3.341132	1.803556	-4.201441	-0.856371	0.280698	-0.433401	0.514531	0.393298	-0.761954	-0.043423	-0.875514	-0.481237
326	2238056574													2.571030	1.649633	-5.238071	-0.816504	0.312863	-0.485220	0.575120	0.367126	-0.731065	-0.050587	-0.875977	-0.479693
327	2238073241													2.060918	1.732691	-5.496983	-0.775118	0.340752	-0.532053	0.629175	0.339375	-0.699259	-0.057709	-0.876763	-0.477449
328	2238089908													1.495040	0.937346	-5.786851	-0.733048	0.365748	-0.573470	0.677014	0.311140	-0.666966	-0.065512	-0.877166	-0.475697
329	2238106575													0.570209	-1.068824	-7.053438	-0.692017	0.389876	-0.607543	0.717954	0.284048	-0.635499	-0.075195	-0.875964	-0.476479
330	2238123242													0.000186	-2.822109	-7.359124	-0.653664	0.415014	-0.632840	0.751717	0.259452	-0.606306	-0.087434	-0.872037	-0.481568
331	2238139909													-1.135670	-3.542645	-7.197066	-0.619564	0.443185	-0.647864	0.778183	0.238682	-0.580914	-0.102819	-0.864070	-0.492758
332	2238156576													-2.173377	-3.566364	-7.009426	-0.591163	0.472618	-0.653574	0.797695	0.222839	-0.560380	-0.119204	-0.852628	-0.508739
333	2238173243													-3.302726	-3.158806	-7.082389	-0.570391	0.498967	-0.652446	0.810405	0.212496	-0.545975	-0.133781	-0.840165	-0.525571
334	2238189910													-4.026643	-2.764429	-7.021104	-0.559661	0.516708	-0.647915	0.816149	0.207986	-0.539112	-0.143806	-0.830515	-0.538112
335	2238206577													-3.978807	-2.292590	-6.962122	-0.560084	0.524303	-0.641414	0.814940	0.209513	-0.540349	-0.148922	-0.825355	-0.544621
336	2238223244													-3.176222	-1.503691	-6.482387	-0.570831	0.522804	-0.633109	0.807203	0.216232	-0.549242	-0.150248	-0.824572	-0.545441
337	2238239911													-2.114849	-0.136836	-5.381820	-0.590082	0.512004	-0.624223	0.793793	0.226880	-0.564285	-0.147293	-0.828479	-0.540303
338	2238256578													-1.263543	0.721081	-4.318304	-0.615134	0.492297	-0.615835	0.775997	0.239917	-0.583325	-0.139420	-0.836710	-0.529602
339	2238273245													-0.490365	-0.138640	-3.819852	-0.643525	0.465873	-0.607320	0.754768	0.254287	-0.604701	-0.127280	-0.847526	-0.515266
340	2238289912													0.178494	-1.737496	-3.660928	-0.672942	0.441563	-0.593440	0.730388	0.269792	-0.627492	-0.116972	-0.855707	-0.504067
341	2238306579													0.399665	-3.221478	-4.041825	-0.702104	0.428050	-0.569054	0.702643	0.286831	-0.651169	-0.115511	-0.857030	-0.502152
342	2238323246													0.280798	-3.572535	-4.857505	-0.730422	0.429023	-0.531434	0.671075	0.306066	-0.675264	-0.127050	-0.849861	-0.511464
343	2238339913													0.394378	-2.854306	-5.268266	-0.757900	0.441110	-0.480634	0.634706	0.328305	-0.699545	-0.150782	-0.835247	-0.528798
344	2238356580													0.138568	-1.414829	-6.004435	-0.785186	0.454283	-0.420844	0.592434	0.353200	-0.724066	-0.180289	-0.817849	-0.546460
345	2238373247													0.158718	-0.521847	-6.507925	-0.814147	0.456969	-0.358250	0.542787	0.379767	-0.749106	-0.206267	-0.804336	-0.557223
346	2238389914													0.584013	-0.193018	-6.822162	-0.845434	0.444734	-0.295726	0.484920	0.407154	-0.774001	-0.223818	-0.797770	-0.559882
347	2238406581													1.187882	0.654353	-6.218829	-0.877404	0.419793	-0.232240	0.418819	0.434133	-0.797571	-0.233992	-0.797058	-0.556728
348	2238423248													2.033239	1.048427	-5.153595	-0.906406	0.388829	-0.165047	0.346306	0.460304	-0.817430	-0.241869	-0.798080	-0.551876
349	2238439915													3.141639	1.132119	-4.204128	-0.930507	0.354245	-0.093096	0.267780	0.484531	-0.832781	-0.249900	-0.799838	-0.545719
350	2238456582													3.635907	1.897290	-3.465736	-0.948969	0.314825	-0.018527	0.184241	0.505756	-0.842773	-0.255956	-0.803178	-0.537951
351	2238473249													4.890059	1.530496	-2.002099	-0.961602	0.268766	0.055560	0.097260	0.523024	-0.846751	-0.256637	-0.808833	-0.529081
352	2238489916													5.069586	0.819615	-0.513101	-0.966657	0.220512	0.130189	0.008336	0.535228	-0.844666	-0.255940	-0.815417	-0.519220
353	2238506583													3.591067	1.267995	1.530630	-0.960713	0.182045	0.209500	-0.079258	0.543452	-0.835690	-0.265986	-0.819463	-0.507673
354	2238523250													1.437584	4.644091	4.168576	-0.943232	0.156708	0.292840	-0.163165	0.549335	-0.819517	-0.289292	-0.820776	-0.492581
355	2238539917													1.447445	6.439412	2.555753	-0.922797	0.120161	0.366069	-0.244807	0.550814	-0.797918	-0.297515	-0.825933	-0.478873
356	2238556584													3.497322	3.134013	2.579825	-0.903507	0.059776	0.424384	-0.325813	0.547506	-0.770768	-0.278426	-0.834664	-0.475200
357	2238573251													5.009435	-1.015996	3.142045	-0.875769	0.006182	0.482692	-0.402954	0.541242	-0.738028	-0.265816	-0.840844	-0.471512
358	2238589918													4.748906	-2.028586	3.004019	-0.833372	-0.015228	0.552502	-0.474111	0.533501	-0.700426	-0.284095	-0.845662	-0.451824
359	2238606585													1.028316	2.298945	4.641383	-0.778146	-0.011193	0.627983	-0.539248	0.524535	-0.658844	-0.322025	-0.851315	-0.414201
360	2238623252													-0.484061	5.561337	4.804442	-0.721715	-0.014825	0.692031	-0.600246	0.511305	-0.615039	-0.344721	-0.859272	-0.377915
361	2238639919													-0.990405	5.125685	5.512338	-0.672634	-0.046194	0.738532	-0.658836	0.491776	-0.569290	-0.336895	-0.869495	-0.361220
362	2238656586													-0.119525	1.296842	6.253929	-0.627734	-0.091922	0.772981	-0.712303	0.468340	-0.522763	-0.313965	-0.878754	-0.359469
363	2238673253													1.627458	-2.984594	6.055530	-0.580430	-0.124142	0.804792	-0.757305	0.445566	-0.477452	-0.299316	-0.886600	-0.352633
364	2238689920													2.030117	-4.364300	5.577137	-0.528376	-0.125592	0.839670	-0.792611	0.427420	-0.434833	-0.304280	-0.895287	-0.325385
365	2238706587													-0.119558	-2.913584	5.516090	-0.474522	-0.103928	0.874087	-0.819784	0.413844	-0.395837	-0.320597	-0.904396	-0.281577
366	2238723254													-2.291299	-1.144324	4.577428	-0.424649	-0.076256	0.902141	-0.841133	0.401842	-0.361965	-0.334916	-0.912529	-0.234783
367	2238739921													-3.358389	-0.423534	3.436327	-0.383664	-0.057225	0.921698	-0.858853	0.388900	-0.333359	-0.339372	-0.919501	-0.198355
368	2238756588													-3.319932	-1.252952	2.630519	-0.352907	-0.050479	0.934296	-0.873687	0.375139	-0.309745	-0.334855	-0.925593	-0.176492
369	2238773255													-2.598190	-2.782378	2.122455	-0.330252	-0.049520	0.942593	-0.885283	0.362661	-0.291120	-0.327425	-0.930605	-0.163609
370	2238789922													-1.818017	-4.306163	1.896270	-0.312845	-0.046856	0.948648	-0.893654	0.352841	-0.277282	-0.321730	-0.934509	-0.152258
371	2238806589													-1.501167	-5.119212	1.668296	-0.297838	-0.035602	0.953952	-0.899107	0.346257	-0.267792	-0.320778	-0.937464	-0.135139
372	2238823256													-1.908843	-4.629930	1.151334	-0.284738	-0.015624	0.958478	-0.902060	0.342694	-0.262391	-0.324365	-0.939317	-0.111672
373	2238839923													-2.453001	-3.281523	0.580490	-0.275302	0.007118	0.961331	-0.902798	0.341758	-0.261070	-0.330401	-0.939761	-0.087661
374	2238856590													-2.832416	-1.624142	0.325472	-0.271743	0.022999	0.962095	-0.901800	0.342978	-0.262912	-0.336024	-0.939062	-0.072461
375	2238873257													-2.776833	-0.925735	0.277877	-0.275245	0.026594	0.961006	-0.899281	0.346303	-0.267150	-0.339904	-0.937746	-0.071403
376	2238889924													-2.732651	-0.802681	0.580498	-0.286035	0.017127	0.958066	-0.895212	0.351797	-0.273558	-0.341730	-0.935920	-0.085294
377	2238906591													-2.676651	-0.873738	1.046656	-0.303756	-0.002957	0.952745	-0.889315	0.359665	-0.282417	-0.341834	-0.933077	-0.111880
378	2238923258													-3.093287	-0.542473	1.367045	-0.328820	-0.031802	0.943857	-0.881144	0.369934	-0.294508	-0.339799	-0.928513	-0.149664
379	2238939925													-3.356145	-0.249913	1.752822	-0.362532	-0.069435	0.929381	-0.870102	0.382501	-0.310831	-0.333907	-0.921342	-0.199085
380	2238956592													-3.618909	-0.397087	2.604437	-0.405392	-0.115312	0.906841	-0.855696	0.396886	-0.332061	-0.321622	-0.910596	-0.259567
381	2238973259													-3.366918	-1.136918	3.725928	-0.456027	-0.165195	0.874500	-0.837241	0.412825	-0.358613	-0.301774	-0.895704	-0.326567
382	2238989926													-2.776297	-1.647882	4.666679	-0.512218	-0.214059	0.831752	-0.813608	0.431128	-0.390090	-0.275089	-0.876531	-0.394992
383	2239006593													-2.432424	-1.745921	5.802330	-0.571996	-0.257211	0.778886	-0.783572	0.452139	-0.426128	-0.242560	-0.854057	-0.460165
384	2239023260													-1.497183	-2.055955	6.986366	-0.633098	-0.288649	0.718240	-0.745966	0.475269	-0.466534	-0.206693	-0.831144	-0.516214
385	2239039927													-0.211214	-1.907454	7.225912	-0.693184	-0.303049	0.653955	-0.699906	0.499696	-0.510329	-0.172124	-0.811459	-0.558487
386	2239056594													0.384882	-1.093500	7.007202	-0.750762	-0.300869	0.588076	-0.645351	0.524079	-0.555754	-0.140989	-0.796755	-0.587625
387	2239073261													0.486455	-0.105612	6.622923	-0.805047	-0.286546	0.519414	-0.582599	0.546793	-0.601328	-0.111703	-0.786707	-0.607136
388	2239089928													0.740223	0.698392	6.286869	-0.854771	-0.264945	0.446285	-0.512520	0.566406	-0.645374	-0.081790	-0.780377	-0.619937
389	2239106595													1.484337	0.858097	5.587971	-0.898457	-0.236986	0.369612	-0.435908	0.582188	-0.686325	-0.052534	-0.777750	-0.626375
390	2239123262													2.422486	1.233793	4.749169	-0.935159	-0.203035	0.290265	-0.353304	0.593730	-0.722953	-0.025554	-0.778628	-0.626966
391	2239139929													3.080894	1.471941	3.621914	-0.964056	-0.162833	0.209958	-0.265679	0.600908	-0.753873	-0.003410	-0.782557	-0.622570
392	2239156596													3.670308	1.924279	2.806611	-0.984684	-0.117947	0.128398	-0.173756	0.603199	-0.778434	0.014364	-0.788821	-0.614455
393	2239173263													4.120385	2.002812	1.792630	-0.996545	-0.068662	0.046732	-0.078678	0.600142	-0.796014	0.026609	-0.796941	-0.603471
394	2239189930													4.460021	1.802761	-0.049953	-0.999400	-0.013366	-0.031940	0.017841	0.591809	-0.805881	0.029674	-0.805968	-0.591216
395	2239206597													4.480326	2.663171	-0.880313	-0.993143	0.045012	-0.107893	0.113971	0.578260	-0.807853	0.026027	-0.814610	-0.579425
396	2239223264													4.451671	3.838689	-1.510860	-0.977945	0.100432	-0.183134	0.207719	0.559381	-0.802463	0.021849	-0.822804	-0.567905
397	2239239931													4.600053	3.788429	-2.811493	-0.954494	0.148845	-0.258431	0.297499	0.535867	-0.790152	0.020875	-0.831079	-0.555763
398	2239256598													5.016886	3.075023	-3.835970	-0.923808	0.190683	-0.331992	0.382233	0.508802	-0.771374	0.021830	-0.839500	-0.542921
399	2239273265													4.871597	2.749899	-4.619944	-0.886838	0.228305	-0.401740	0.461553	0.479167	-0.746571	0.022055	-0.847512	-0.530318
400	2239289932													4.362487	1.423111	-5.877430	-0.844820	0.264287	-0.465221	0.534716	0.447733	-0.716668	0.018889	-0.854217	-0.519573
401	2239306599													4.199255	0.632890	-6.449392	-0.799335	0.301093	-0.520006	0.600792	0.415708	-0.682814	0.010580	-0.858213	-0.513185
402	2239323266													2.978486	0.144891	-7.427788	-0.752007	0.338345	-0.565693	0.659153	0.383733	-0.646735	-0.001745	-0.859227	-0.511591
403	2239339933													2.027299	0.212132	-7.374982	-0.704624	0.372341	-0.604043	0.709441	0.352740	-0.610138	-0.014109	-0.858450	-0.512703
404	2239356600													0.788471	-1.151823	-7.894153	-0.659339	0.400939	-0.636018	0.751441	0.323678	-0.574951	-0.024655	-0.857018	-0.514696
405	2239373267													-0.294395	-3.104143	-8.653061	-0.619009	0.424124	-0.661019	0.784672	0.298140	-0.543510	-0.033439	-0.855121	-0.517350
406	2239389934													-1.488313	-5.149505	-8.933584	-0.585985	0.446703	-0.676076	0.809160	0.277908	-0.517714	-0.043377	-0.850426	-0.524304
407	2239406601													-2.305684	-6.306576	-8.873908	-0.561980	0.473069	-0.678516	0.825199	0.264335	-0.499173	-0.056788	-0.840436	-0.538927
408	2239423268													-3.167173	-5.788927	-8.430482	-0.548599	0.501350	-0.669095	0.832947	0.258444	-0.489292	-0.072383	-0.825745	-0.559380
409	2239439935													-3.706332	-4.180485	-8.198231	-0.547036	0.523887	-0.652912	0.832670	0.260314	-0.488772	-0.086099	-0.811036	-0.578625
410	2239456602													-3.756805	-2.658366	-7.659810	-0.558123	0.532780	-0.636117	0.824436	0.269374	-0.497738	-0.093832	-0.802237	-0.589586
411	2239473269													-2.936633	-1.624030	-6.897848	-0.580443	0.527526	-0.620324	0.808731	0.284500	-0.514796	-0.095086	-0.800485	-0.591763
412	2239489936													-1.837353	-1.272917	-6.172166	-0.611149	0.512603	-0.603105	0.786111	0.304201	-0.538043	-0.092338	-0.802932	-0.588875
413	2239506603													-1.110450	-1.823667	-6.259033	-0.646885	0.494119	-0.580850	0.757329	0.326965	-0.565284	-0.089400	-0.805568	-0.585720
414	2239523270													-0.165400	-2.672077	-6.560447	-0.685207	0.478695	-0.548947	0.722573	0.352047	-0.594938	-0.091539	-0.804310	-0.587117
415	2239539937													0.804551	-2.257737	-6.512411	-0.724334	0.470256	-0.504183	0.681666	0.378893	-0.625917	-0.103309	-0.797057	-0.595002
416	2239556604													0.850323	-1.456039	-6.526255	-0.763210	0.466277	-0.447322	0.634014	0.406856	-0.657643	-0.124648	-0.785528	-0.606142
417	2239573271													1.376451	-0.340124	-6.263746	-0.800836	0.462049	-0.381015	0.579093	0.435239	-0.689361	-0.152686	-0.772708	-0.616124
418	2239589938													1.751356	0.392365	-6.103808	-0.836019	0.454819	-0.306940	0.516521	0.463585	-0.719927	-0.185143	-0.760414	-0.622489
419	2239606605													1.786418	1.171606	-6.406140	-0.868092	0.440919	-0.228048	0.446089	0.491382	-0.748029	-0.217762	-0.751088	-0.623254
420	2239623272													2.247515	2.175977	-5.926604	-0.897103	0.416255	-0.148112	0.367793	0.517830	-0.772386	-0.244813	-0.747385	-0.617643
421	2239639939													2.875795	2.880532	-4.766126	-0.922543	0.379767	-0.068498	0.281841	0.541837	-0.791820	-0.263593	-0.749793	-0.606902
422	2239656606													3.688439	2.997968	-3.260606	-0.941621	0.336433	0.012718	0.190010	0.562232	-0.804855	-0.277930	-0.755452	-0.593336
423	2239673273													4.562363	2.671208	-2.149414	-0.951704	0.291177	0.097347	0.094237	0.578813	-0.809997	-0.292198	-0.761703	-0.578298
424	2239689940													4.891377	2.506486	-1.229199	-0.952538	0.243462	0.182749	-0.003852	0.590633	-0.806931	-0.304395	-0.769336	-0.561663
425	2239706607													3.902256	3.832331	0.129251	-0.945616	0.189997	0.264028	-0.102095	0.597312	-0.795484	-0.308847	-0.779179	-0.545430
426	2239723274													4.535905	2.517450	1.638168	-0.929371	0.136597	0.342943	-0.198051	0.599486	-0.775495	-0.311520	-0.788643	-0.530092
427	2239739941													4.857925	0.935542	3.263511	-0.899123	0.097337	0.426736	-0.289906	0.598000	-0.747229	-0.327921	-0.795564	-0.509456
428	2239756608													3.499679	1.927144	4.251179	-0.853322	0.077356	0.515614	-0.376210	0.593339	-0.711629	-0.360982	-0.801227	-0.477207
429	2239773275													1.089636	5.343322	5.585659	-0.801476	0.056306	0.595371	-0.456985	0.584506	-0.670461	-0.385749	-0.809434	-0.442736
430	2239789942													0.892825	4.806443	6.148842	-0.752105	0.019235	0.658762	-0.533068	0.570009	-0.625243	-0.387527	-0.821414	-0.418453
431	2239806609													1.387212	1.590321	6.864235	-0.701859	-0.025486	0.711860	-0.603822	0.551444	-0.575595	-0.377881	-0.833823	-0.402425
432	2239823276													1.488035	-0.924604	6.887156	-0.642711	-0.054955	0.764135	-0.666594	0.531714	-0.522430	-0.377591	-0.845139	-0.378371
433	2239839943													1.365679	-1.124195	6.655962	-0.573123	-0.061785	0.817137	-0.720846	0.512280	-0.466852	-0.389759	-0.856593	-0.338136
434	2239856610													-0.015236	0.177643	6.783899	-0.498202	-0.056641	0.865209	-0.768172	0.491624	-0.410143	-0.402126	-0.868963	-0.288439
435	2239873277													-1.587905	1.233428	6.647278	-0.424647	-0.051225	0.903909	-0.809547	0.468488	-0.353768	-0.405349	-0.881983	-0.240411
436	2239889944													-2.788274	0.528349	6.551502	-0.357948	-0.051631	0.932313	-0.844602	0.443649	-0.299704	-0.398145	-0.894712	-0.202411
437	2239906611													-3.407363	-1.003100	6.070453	-0.300398	-0.053432	0.952316	-0.872119	0.419677	-0.251554	-0.386225	-0.906099	-0.172669
438	2239923278													-3.746918	-2.294486	4.610666	-0.254965	-0.054623	0.965406	-0.891463	0.400010	-0.212804	-0.374548	-0.914882	-0.150683
439	2239939945													-4.110757	-2.676134	3.198427	-0.224441	-0.058035	0.972758	-0.903448	0.386540	-0.185388	-0.365251	-0.920445	-0.139187
440	2239956612													-4.841423	-2.772991	1.763203	-0.209136	-0.067396	0.975561	-0.910259	0.377968	-0.169025	-0.357339	-0.923363	-0.140395
441	2239973279													-4.937938	-3.691749	1.261134	-0.206305	-0.082037	0.975043	-0.914309	0.371108	-0.162231	-0.348537	-0.924959	-0.151569
442	2239989946													-3.064843	-4.917711	1.053219	-0.208880	-0.095381	0.973279	-0.917297	0.364124	-0.161182	-0.339020	-0.926454	-0.163551
443	2240006613													-1.198624	-5.475543	0.296487	-0.209992	-0.098472	0.972731	-0.919497	0.358048	-0.162254	-0.332307	-0.928496	-0.165732
444	2240023280													-1.036644	-5.346626	0.621971	-0.208243	-0.088474	0.974067	-0.920051	0.355641	-0.164392	-0.331874	-0.930426	-0.155460
445	2240039947													-1.255500	-3.282298	0.344444	-0.206020	-0.071602	0.975925	-0.918641	0.357746	-0.167680	-0.337127	-0.931070	-0.139480
446	2240056614													-2.566411	-1.268152	0.331071	-0.208802	-0.060341	0.976095	-0.915278	0.363633	-0.173313	-0.344482	-0.929586	-0.131156
447	2240073281													-3.637285	-0.023419	0.281402	-0.221385	-0.064945	0.973022	-0.910437	0.371280	-0.182364	-0.349420	-0.926247	-0.141324
448	2240089948													-3.675699	0.305858	0.570966	-0.246415	-0.087507	0.965206	-0.904052	0.379637	-0.196384	-0.349243	-0.920988	-0.172659
449	2240106615													-3.184384	-0.529296	1.506346	-0.283154	-0.122644	0.951200	-0.895423	0.389097	-0.216382	-0.343571	-0.912996	-0.219993
450	2240123282													-2.968329	-1.331441	2.909442	-0.328845	-0.160648	0.930620	-0.883396	0.400711	-0.242985	-0.333875	-0.902010	-0.273688
451	2240139949													-2.542514	-1.204296	4.102169	-0.381887	-0.195546	0.903285	-0.866736	0.415055	-0.276582	-0.320828	-0.888533	-0.327991
452	2240156616													-2.166201	-0.833768	4.901592	-0.440608	-0.224744	0.869111	-0.844562	0.431927	-0.316471	-0.304267	-0.873458	-0.380121
453	2240173283													-1.936041	-1.014102	5.802699	-0.502652	-0.246140	0.828708	-0.816331	0.450626	-0.361302	-0.284507	-0.858109	-0.427440
454	2240189950													-1.194197	-0.902035	6.388887	-0.565808	-0.257327	0.783355	-0.781402	0.470605	-0.409807	-0.263196	-0.843987	-0.467348
455	2240206617													-0.492414	-0.828745	6.420279	-0.628423	-0.258784	0.733563	-0.739464	0.491408	-0.460120	-0.241407	-0.831594	-0.500174
456	2240223284													-0.186976	-0.398587	6.299721	-0.689346	-0.251187	0.679490	-0.690325	0.512182	-0.511000	-0.219666	-0.821325	-0.526472
457	2240239951													-0.225265	0.430722	6.329346	-0.748113	-0.237558	0.619592	-0.633819	0.532272	-0.561213	-0.196471	-0.812559	-0.548768
458	2240256618													-0.144602	1.260515	6.735260	-0.804164	-0.219559	0.552372	-0.569339	0.551538	-0.609638	-0.170803	-0.804735	-0.568531
459	2240273285													1.000761	1.160807	6.544441	-0.855847	-0.197313	0.478114	-0.497100	0.569155	-0.654946	-0.142891	-0.798204	-0.585194
460	2240289952													1.601133	0.882868	5.825855	-0.901164	-0.169055	0.399154	-0.417801	0.584140	-0.695860	-0.115523	-0.793852	-0.597038
461	2240306619													2.043411	0.833472	4.745563	-0.938704	-0.132160	0.318384	-0.331926	0.595844	-0.731297	-0.093059	-0.792151	-0.603188
462	2240323286													2.405357	1.456291	3.659197	-0.967775	-0.087906	0.235975	-0.240223	0.603350	-0.760435	-0.075529	-0.792617	-0.605024
463	2240339953													2.867919	1.673160	2.407109	-0.987589	-0.038058	0.152378	-0.144097	0.605509	-0.782685	-0.062479	-0.794928	-0.603478
464	2240356620													3.340870	1.869013	1.313281	-0.997453	0.017022	0.069273	-0.045118	0.601640	-0.797492	-0.055252	-0.798586	-0.599340
465	2240373287													4.140294	1.596933	-0.060951	-0.996860	0.078457	-0.010724	0.055188	0.591228	-0.804614	-0.056787	-0.802679	-0.593701
466	2240389954													4.692489	1.587150	-1.641269	-0.985715	0.144336	-0.086799	0.154837	0.573796	-0.804229	-0.066274	-0.806180	-0.587947
467	2240406621													4.857384	2.145542	-2.261716	-0.964436	0.211057	-0.159115	0.251721	0.549796	-0.796468	-0.080619	-0.808195	-0.583371
468	2240423288													4.331533	2.583760	-3.566467	-0.934421	0.272650	-0.229173	0.343534	0.520042	-0.782011	-0.094036	-0.809456	-0.579602
469	2240439955													4.047127	2.539351	-4.770994	-0.897739	0.324432	-0.298007	0.428561	0.486595	-0.761289	-0.101977	-0.811153	-0.575874
470	2240456622													4.538585	2.023254	-5.293885	-0.856364	0.365553	-0.364707	0.505757	0.451301	-0.735212	-0.104166	-0.814063	-0.571359
471	2240473289													4.056846	1.049941	-6.235571	-0.811552	0.398331	-0.427454	0.575111	0.415483	-0.704714	-0.103110	-0.817745	-0.566270
472	2240489956													4.265062	0.057555	-6.186622	-0.764050	0.428118	-0.482642	0.636862	0.380912	-0.670308	-0.103127	-0.819525	-0.563688
473	2240506623													3.373385	-1.022959	-6.985548	-0.714550	0.460236	-0.526879	0.691178	0.348027	-0.633364	-0.108129	-0.816738	-0.566787
474	2240523290													2.206654	-1.630324	-7.507200	-0.664789	0.495262	-0.559260	0.737734	0.317503	-0.595769	-0.117495	-0.808645	-0.576444
475	2240539957													1.189290	-1.793283	-7.585211	-0.617186	0.530782	-0.580821	0.776227	0.290038	-0.559776	-0.128659	-0.796334	-0.591015
476	2240556624													-0.239482	-2.529515	-7.850786	-0.574167	0.565557	-0.592012	0.806536	0.266329	-0.527796	-0.140829	-0.780522	-0.609059
477	2240573291													-1.675213	-3.074882	-8.010190	-0.538104	0.597499	-0.594508	0.828915	0.247276	-0.501752	-0.152789	-0.762791	-0.628336
478	2240589958													-3.066684	-2.700558	-7.705724	-0.511182	0.623848	-0.591191	0.843857	0.233775	-0.482965	-0.163091	-0.745764	-0.645940
479	2240606625													-4.086295	-3.017132	-7.949422	-0.496620	0.640033	-0.586282	0.851155	0.226806	-0.473386	-0.170011	-0.734110	-0.657404
480	2240623292													-3.958909	-3.181651	-7.979946	-0.496240	0.644867	-0.581285	0.850685	0.227411	-0.473940	-0.173438	-0.729678	-0.661429
481	2240639959													-3.223713	-3.068735	-7.400876	-0.508558	0.642338	-0.573385	0.842956	0.235708	-0.483598	-0.175482	-0.729276	-0.661334
482	2240656626													-1.928022	-1.686225	-6.520144	-0.531103	0.634215	-0.561872	0.828719	0.250676	-0.500386	-0.176504	-0.731391	-0.658721
483	2240673293													-1.946702	-0.021476	-5.933714	-0.561896	0.617121	-0.550849	0.808777	0.270064	-0.522442	-0.173645	-0.739072	-0.650861
484	2240689960													-1.128215	0.031029	-5.230983	-0.598796	0.589040	-0.542655	0.783896	0.292164	-0.547858	-0.164166	-0.753440	-0.636693
485	2240706627													-0.057272	-0.949534	-4.662706	-0.638326	0.557373	-0.530920	0.754465	0.316174	-0.575167	-0.152719	-0.767704	-0.622340
486	2240723294													0.421661	-2.166429	-4.716232	-0.677470	0.532332	-0.507600	0.720615	0.341982	-0.603127	-0.147473	-0.774385	-0.615289
487	2240739961													0.560901	-2.448762	-5.145574	-0.714999	0.518064	-0.469454	0.682136	0.369816	-0.630814	-0.153190	-0.771263	-0.617808
488	2240756628													0.215336	-1.452561	-5.478479	-0.751102	0.510603	-0.418486	0.638239	0.399523	-0.658052	-0.168809	-0.761358	-0.625969
489	2240773295													-0.213000	-0.598964	-6.066981	-0.786582	0.501663	-0.360031	0.587945	0.430289	-0.684962	-0.188703	-0.750457	-0.633408
490	2240789962													0.146586	0.120541	-5.977524	-0.821786	0.485220	-0.298711	0.530705	0.460969	-0.711238	-0.207411	-0.743013	-0.636327
491	2240806629													0.666200	0.435204	-5.695499	-0.855853	0.460927	-0.234652	0.466140	0.490797	-0.736092	-0.224118	-0.739368	-0.634907
492	2240823296													1.191017	0.886314	-5.561919	-0.887856	0.428115	-0.168610	0.394259	0.518928	-0.758468	-0.237215	-0.739886	-0.629521
493	2240839963													1.851015	1.482671	-4.473172	-0.916415	0.387231	-0.101173	0.315797	0.544304	-0.777178	-0.245878	-0.744168	-0.621095
494	2240856630													1.640518	2.701867	-3.244376	-0.940645	0.337661	-0.034235	0.231938	0.565909	-0.791171	-0.247774	-0.752152	-0.610635
495	2240873297													1.617179	3.628069	-2.490871	-0.960789	0.275826	0.028361	0.143922	0.583508	-0.799252	-0.237004	-0.763831	-0.600326
496	2240889964													3.634406	1.894025	-1.770741	-0.974971	0.204348	0.087598	0.052990	0.596219	-0.801071	-0.215924	-0.776380	-0.592124
497	2240906631													5.517658	-0.801738	-1.134604	-0.977548	0.142032	0.155650	-0.038779	0.604798	-0.795434	-0.207114	-0.783611	-0.585711
498	2240923298													4.522664	0.240734	1.063791	-0.965543	0.103006	0.238989	-0.128498	0.609876	-0.782010	-0.226306	-0.785774	-0.575626
499	2240939965													1.250341	4.933815	3.239721	-0.943511	0.071041	0.323636	-0.215240	0.611184	-0.761660	-0.251910	-0.788294	-0.561368
500	2240956632													0.110265	7.268599	3.354942	-0.920804	0.017181	0.389646	-0.300155	0.606717	-0.736072	-0.249051	-0.794733	-0.553510
501	2240973299													2.588879	2.965402	4.323297	-0.896925	-0.056785	0.438522	-0.382539	0.597068	-0.705105	-0.221788	-0.800178	-0.557248
502	2240989966													5.500321	-1.989372	3.828242	-0.863220	-0.115382	0.491465	-0.458912	0.585016	-0.668698	-0.210359	-0.802772	-0.557948
503	2241006633													5.688006	-3.080523	4.276208	-0.815111	-0.131894	0.564091	-0.527052	0.572989	-0.627614	-0.240440	-0.808880	-0.536565
504	2241023300													1.170277	1.958595	6.279871	-0.756141	-0.123057	0.642735	-0.587631	0.559909	-0.584116	-0.287994	-0.819365	-0.495683
505	2241039967													-1.552187	5.090753	6.462158	-0.696835	-0.119942	0.707131	-0.642571	0.542392	-0.541215	-0.318628	-0.831519	-0.455029
506	2241056634													-2.090429	4.472233	6.513517	-0.645166	-0.140060	0.751095	-0.693537	0.519820	-0.498792	-0.320574	-0.842716	-0.432507
507	2241073301													-0.315932	0.414954	6.338795	-0.597585	-0.166268	0.784377	-0.738844	0.494182	-0.458141	-0.311451	-0.853311	-0.418162
508	2241089968													1.819276	-3.249616	5.351898	-0.546613	-0.171667	0.819600	-0.776984	0.468961	-0.419966	-0.312266	-0.866375	-0.389723
509	2241106635													2.467352	-4.914630	4.771547	-0.487119	-0.139153	0.862178	-0.807913	0.446701	-0.384364	-0.331650	-0.883796	-0.330020
510	2241123302													0.346769	-3.817810	4.984525	-0.420713	-0.074033	0.904168	-0.832507	0.427518	-0.352364	-0.360461	-0.900970	-0.241496
511	2241139969													-2.627881	-0.960905	4.326384	-0.357983	-0.000536	0.933728	-0.851917	0.409526	-0.326382	-0.382210	-0.912299	-0.147060
512	2241156636													-3.946046	2.079187	2.257046	-0.311870	0.052038	0.948699	-0.867231	0.392304	-0.306608	-0.388134	-0.918362	-0.077219
513	2241173303													-3.941905	2.056640	1.030716	-0.287082	0.070153	0.955334	-0.879055	0.376951	-0.291841	-0.380588	-0.923573	-0.046547
514	2241189970													-2.546229	-0.918057	1.036166	-0.275451	0.065393	0.959088	-0.888238	0.364237	-0.279937	-0.367641	-0.929008	-0.042245
515	2241206637													-1.292952	-4.256949	1.643963	-0.266371	0.059601	0.962026	-0.895332	0.354341	-0.269857	-0.356969	-0.933215	-0.041024
516	2241223304													-0.600756	-4.876063	1.469998	-0.256835	0.063835	0.964345	-0.900255	0.347140	-0.262745	-0.351535	-0.935638	-0.031690
517	2241239971													-1.453748	-3.440384	1.038155	-0.250024	0.072854	0.965495	-0.902689	0.343122	-0.259652	-0.350199	-0.936461	-0.020025
518	2241256638													-2.836904	-1.576284	0.575226	-0.250409	0.075061	0.965226	-0.902865	0.341779	-0.260809	-0.349470	-0.936778	-0.017814
519	2241273305													-3.733470	-0.721769	0.701426	-0.260605	0.063550	0.963352	-0.901231	0.341820	-0.266350	-0.346219	-0.937614	-0.031807
520	2241289972													-3.779622	-0.951053	1.247667	-0.280841	0.038419	0.958985	-0.897870	0.342471	-0.276663	-0.339054	-0.938742	-0.061685
521	2241306639													-3.644896	-1.493675	2.046225	-0.310682	0.004419	0.950504	-0.891960	0.344198	-0.293147	-0.328457	-0.938887	-0.102994
522	2241323306													-3.473979	-1.440555	2.828532	-0.350244	-0.034372	0.936028	-0.882240	0.347769	-0.317347	-0.314613	-0.936950	-0.152128
523	2241339973													-3.091346	-1.811175	4.236963	-0.399099	-0.074328	0.913890	-0.867448	0.353538	-0.350064	-0.297075	-0.932462	-0.205573
524	2241356640													-2.558368	-1.841440	5.339582	-0.454709	-0.112102	0.883557	-0.846887	0.361535	-0.389967	-0.275721	-0.925595	-0.259331
525	2241373307													-2.468104	-1.814898	6.227219	-0.514189	-0.144554	0.845408	-0.819981	0.371868	-0.435139	-0.251479	-0.916961	-0.309742
526	2241389974													-1.395448	-2.033809	6.597086	-0.574913	-0.168772	0.800619	-0.786289	0.384622	-0.483544	-0.226327	-0.907514	-0.353828
527	2241406641													-0.832202	-1.901243	6.572830	-0.634917	-0.183556	0.750458	-0.745705	0.399578	-0.533162	-0.202002	-0.898134	-0.390577
528	2241423308													-0.484281	-1.463922	6.333582	-0.693092	-0.190397	0.695250	-0.698446	0.415962	-0.582365	-0.178318	-0.889227	-0.421282
529	2241439975													0.027888	-1.377214	5.821276	-0.748561	-0.188138	0.635815	-0.644250	0.433186	-0.630311	-0.156841	-0.881450	-0.445474
530	2241456642													0.703662	-1.408235	4.744350	-0.799721	-0.174924	0.574324	-0.583647	0.450739	-0.675419	-0.140723	-0.875349	-0.462560
531	2241473309													1.351425	-1.358140	3.150093	-0.845184	-0.148719	0.513368	-0.517501	0.467848	-0.716457	-0.133627	-0.871206	-0.472380
532	2241489976													0.940534	-1.272329	2.924542	-0.884141	-0.107867	0.454598	-0.446075	0.484281	-0.752655	-0.138966	-0.868238	-0.476289
533	2241506643													1.011246	-0.956976	2.519957	-0.915198	-0.052328	0.399592	-0.370573	0.498967	-0.783395	-0.158389	-0.865040	-0.476045
534	2241523310													0.888617	1.227283	2.292890	-0.938800	0.007248	0.344386	-0.292683	0.510396	-0.808599	-0.181634	-0.859909	-0.477039
535	2241539977													0.837081	2.766792	1.626944	-0.956658	0.060967	0.284760	-0.213700	0.517312	-0.828686	-0.197832	-0.853622	-0.481862
536	2241556644													1.823834	3.506142	1.919679	-0.971193	0.100273	0.216168	-0.134203	0.519448	-0.843898	-0.196908	-0.848598	-0.491028
537	2241573311													2.483216	2.827856	1.151981	-0.981052	0.132443	0.141404	-0.053298	0.517200	-0.854204	-0.186268	-0.845555	-0.500341
538	2241589978													3.585026	1.576674	1.006862	-0.983532	0.167983	0.066685	0.029126	0.511457	-0.858815	-0.178372	-0.842730	-0.507926
539	2241606645													4.036555	1.771785	-0.080197	-0.977353	0.211571	-0.004433	0.112609	0.502236	-0.857367	-0.179167	-0.838449	-0.514686
540	2241623312													3.983952	2.917387	-0.541675	-0.963070	0.259198	-0.072886	0.196067	0.489588	-0.849624	-0.184537	-0.832538	-0.522328
541	2241639979													4.130474	3.696083	-1.103996	-0.942857	0.301331	-0.142200	0.277321	0.473115	-0.836215	-0.184701	-0.827866	-0.529645
542	2241656646													4.193942	4.266249	-1.651959	-0.918265	0.332590	-0.214880	0.355411	0.453059	-0.817570	-0.174562	-0.827117	-0.534234
543	2241673313													3.965908	3.106167	-2.601721	-0.889046	0.354960	-0.289139	0.429847	0.429814	-0.794035	-0.157575	-0.830219	-0.534702
544	2241689980													4.006628	1.694250	-3.441322	-0.854353	0.374943	-0.359858	0.500029	0.404393	-0.765792	-0.141605	-0.834197	-0.532977
545	2241706647													3.701487	1.472660	-4.106848	-0.813994	0.396765	-0.424254	0.565953	0.377238	-0.733068	-0.130811	-0.836821	-0.531620
546	2241723314													3.087855	0.578565	-4.961951	-0.768976	0.420426	-0.481579	0.626932	0.348625	-0.696719	-0.125029	-0.837677	-0.531663
547	2241739981													3.213474	0.429255	-4.857343	-0.721091	0.443491	-0.532301	0.682062	0.319399	-0.657857	-0.121737	-0.837436	-0.532804
548	2241756648													2.143273	0.020716	-5.419071	-0.672008	0.463269	-0.577743	0.730961	0.289860	-0.617800	-0.118743	-0.837474	-0.533420
549	2241773315													1.261534	-0.535515	-5.473140	-0.623026	0.478143	-0.619045	0.773794	0.261027	-0.577155	-0.114375	-0.838596	-0.532611
550	2241789982													0.401464	-1.445396	-5.651200	-0.575613	0.489661	-0.654905	0.810303	0.233918	-0.537300	-0.109901	-0.839949	-0.531420
551	2241806649													-1.100720	-2.863227	-6.571987	-0.531420	0.501482	-0.682722	0.840200	0.209312	-0.500252	-0.107966	-0.839467	-0.532577
552	2241823316													-2.191328	-3.712881	-7.064356	-0.492547	0.516353	-0.700555	0.863329	0.188325	-0.468184	-0.109816	-0.835412	-0.538541
553	2241839983													-3.128008	-4.274559	-7.370800	-0.460959	0.536522	-0.706867	0.879767	0.171888	-0.443244	-0.116308	-0.826195	-0.551247
554	2241856650													-3.788116	-4.468278	-7.805370	-0.439254	0.560295	-0.702229	0.889425	0.161241	-0.427697	-0.126409	-0.812448	-0.569166
555	2241873317													-4.322235	-4.070065	-8.277432	-0.429765	0.583259	-0.689283	0.892322	0.157616	-0.422988	-0.138070	-0.796848	-0.588193
556	2241889984													-4.154843	-3.297254	-8.333056	-0.433647	0.600965	-0.671411	0.888648	0.161864	-0.429074	-0.149181	-0.782714	-0.604238
557	2241906651													-3.324452	-2.392742	-8.114965	-0.450573	0.610535	-0.651330	0.878498	0.173426	-0.445157	-0.158827	-0.772768	-0.614495
558	2241923318													-2.545196	-1.620807	-7.887008	-0.479068	0.611139	-0.630082	0.861810	0.191182	-0.469822	-0.166666	-0.768088	-0.618275
559	2241939985													-1.567252	-1.082149	-7.426575	-0.517531	0.601644	-0.608430	0.838279	0.213889	-0.501538	-0.171611	-0.769595	-0.615039
560	2241956652													-0.701254	-1.075012	-6.989484	-0.562616	0.585450	-0.583705	0.808051	0.240233	-0.537906	-0.174692	-0.774297	-0.608232
561	2241973319													0.137889	-1.630039	-6.737960	-0.611388	0.567113	-0.551895	0.770956	0.269632	-0.576996	-0.178413	-0.778255	-0.602069
562	2241989986													0.766386	-1.874396	-6.711094	-0.660953	0.551106	-0.509336	0.726901	0.301562	-0.616990	-0.186431	-0.778038	-0.599917
563	2242006653													1.285896	-1.670931	-6.557105	-0.708490	0.540091	-0.454251	0.676165	0.335176	-0.656093	-0.202096	-0.771984	-0.602659
564	2242023320													1.769909	-0.781618	-6.459342	-0.753315	0.530145	-0.389182	0.618347	0.369422	-0.693668	-0.223972	-0.763200	-0.606104
565	2242039987													1.950694	-0.046675	-6.553219	-0.795276	0.516308	-0.317744	0.552993	0.402994	-0.729243	-0.248465	-0.755660	-0.606006
566	2242056654													2.603402	0.472621	-6.597901	-0.834576	0.494849	-0.242087	0.479205	0.435350	-0.762124	-0.271744	-0.752060	-0.600467
567	2242073321													3.331393	1.868569	-5.823493	-0.870023	0.465557	-0.162222	0.396825	0.466030	-0.790789	-0.292557	-0.752378	-0.590201
568	2242089988													4.192173	3.982557	-3.140160	-0.900350	0.427675	-0.080404	0.307282	0.493981	-0.813364	-0.308137	-0.757019	-0.576172
569	2242106655													3.535824	4.530104	-2.643501	-0.924330	0.381593	0.001276	0.212762	0.518141	-0.828409	-0.316776	-0.765452	-0.560122
570	2242123322													4.419272	3.383419	-1.916998	-0.942137	0.325334	0.080841	0.114467	0.538869	-0.834576	-0.315079	-0.777032	-0.544928
571	2242139989													5.535593	2.446385	-0.724437	-0.952360	0.260420	0.158720	0.013117	0.554928	-0.831795	-0.304694	-0.790086	-0.531907
572	2242156656													5.306221	1.710191	0.096867	-0.951779	0.194316	0.237399	-0.089259	0.564951	-0.820283	-0.293513	-0.801918	-0.520363
573	2242173323													4.002246	2.555001	2.589979	-0.937546	0.137396	0.319579	-0.189021	0.570016	-0.799595	-0.292026	-0.810064	-0.508445
574	2242189990													3.744965	2.985959	4.931308	-0.908917	0.097309	0.405464	-0.282683	0.571026	-0.770726	-0.306530	-0.815144	-0.491508
575	2242206657													3.381666	4.412313	5.493210	-0.871852	0.060988	0.485957	-0.370177	0.567627	-0.735369	-0.320691	-0.821024	-0.472311
576	2242223324													3.921579	2.753763	5.820802	-0.830773	0.021451	0.556197	-0.451331	0.558852	-0.695691	-0.325755	-0.828990	-0.454598
577	2242239991													3.957479	0.521936	5.747273	-0.783489	-0.012515	0.621280	-0.526141	0.545331	-0.652526	-0.330637	-0.838128	-0.433845
578	2242256658													4.017550	-1.015007	5.491109	-0.725085	-0.026371	0.688154	-0.594334	0.528744	-0.605968	-0.347878	-0.848371	-0.399057
579	2242273325													2.198722	0.000775	6.256945	-0.655486	-0.019845	0.754947	-0.656176	0.509838	-0.556326	-0.373860	-0.860041	-0.347214
580	2242289992													-0.092339	2.277804	6.644016	-0.581426	-0.007105	0.813568	-0.712070	0.488169	-0.504626	-0.393573	-0.872720	-0.288894
581	2242306659													-0.845893	2.337225	7.058643	-0.510567	-0.001499	0.859836	-0.762033	0.463991	-0.451683	-0.398279	-0.885839	-0.238041
582	2242323326													-0.804321	0.480541	7.110393	-0.445194	-0.003594	0.895427	-0.805634	0.438086	-0.398792	-0.390841	-0.898926	-0.197928
583	2242339993													-1.134940	-1.525866	6.670557	-0.384347	-0.005295	0.923173	-0.841709	0.412769	-0.348063	-0.379214	-0.910820	-0.163104
584	2242356660													-1.530455	-2.469878	5.489414	-0.327797	0.000191	0.944748	-0.869762	0.390380	-0.301858	-0.368868	-0.920654	-0.127800
585	2242373327													-2.664299	-2.323029	4.250104	-0.277545	0.013728	0.960615	-0.890269	0.372149	-0.262539	-0.361096	-0.928071	-0.091067
586	2242389994													-3.938885	-1.943216	2.953804	-0.235855	0.031628	0.971274	-0.904958	0.357091	-0.231379	-0.354151	-0.933534	-0.055600
587	2242406661													-4.604590	-1.439856	1.889436	-0.204006	0.049484	0.977718	-0.915768	0.343387	-0.208459	-0.346051	-0.937890	-0.024737
588	2242423328													-4.458593	-1.813816	1.371562	-0.181887	0.063463	0.981269	-0.924211	0.329734	-0.192637	-0.335784	-0.941938	-0.001321
589	2242439995													-3.373146	-2.506949	1.049784	-0.167081	0.074740	0.983106	-0.931177	0.315740	-0.182259	-0.324028	-0.945898	0.016842
590	2242456662													-2.329403	-2.710084	0.654577	-0.156858	0.086050	0.983865	-0.937128	0.301487	-0.175775	-0.311748	-0.949580	0.033349
591	2242473329													-1.956950	-2.516500	0.360357	-0.148839	0.100787	0.983712	-0.942266	0.287313	-0.172005	-0.299969	-0.952520	0.052205
592	2242489996													-0.338654	-1.104764	-0.409165	-0.141132	0.120105	0.982678	-0.946631	0.274174	-0.169465	-0.289779	-0.954150	0.075001
593	2242506663													-0.320472	-1.378501	-0.326393	-0.134560	0.142929	0.980543	-0.949841	0.263310	-0.168728	-0.282303	-0.954064	0.100329
594	2242523330													-1.341012	-2.103693	0.566158	-0.128772	0.168206	0.977305	-0.951523	0.256631	-0.169544	-0.279325	-0.951760	0.127004
595	2242539997													-1.912445	-1.964516	0.428484	-0.123427	0.193151	0.973375	-0.952085	0.253535	-0.171038	-0.279820	-0.947846	0.152603
596	2242556664													-2.199441	-0.943604	-0.076466	-0.119180	0.213164	0.969720	-0.952024	0.252733	-0.172561	-0.281864	-0.943762	0.172816
597	2242573331													-2.637639	-0.358478	-0.222366	-0.117643	0.223325	0.967619	-0.951593	0.253265	-0.174148	-0.283956	-0.941266	0.182720
598	2242589998													-2.419726	-0.495909	-0.175400	-0.120242	0.222134	0.967573	-0.950746	0.254722	-0.176630	-0.285698	-0.941155	0.180565
599	2242606665													-2.496122	-0.740911	0.161257	-0.128514	0.211085	0.968983	-0.949103	0.257135	-0.181893	-0.287554	-0.943040	0.167296
600	2242623332													-2.950850	-0.903533	0.604897	-0.143710	0.190194	0.971171	-0.946246	0.260939	-0.191124	-0.289767	-0.946434	0.142471
601	2242639999													-2.821298	-0.958264	0.775627	-0.166333	0.162863	0.972527	-0.941608	0.266585	-0.205688	-0.292760	-0.949952	0.109011
602	2242656666													-3.166942	-1.111217	1.419527	-0.197974	0.128951	0.971688	-0.934341	0.274862	-0.226842	-0.296332	-0.952797	0.066069
603	2242673333													-3.492702	-1.106743	2.558259	-0.239974	0.088399	0.966746	-0.923731	0.285469	-0.255399	-0.298553	-0.954302	0.013152
604	2242690000													-3.686581	-1.082769	3.699307	-0.293026	0.040339	0.955253	-0.908945	0.298159	-0.291411	-0.296572	-0.953664	-0.050703
605	2242706667													-3.499850	-1.523238	5.038939	-0.355446	-0.011094	0.934631	-0.888988	0.312882	-0.334374	-0.288719	-0.949727	-0.121074
606	2242723334													-2.541909	-1.861364	5.943682	-0.423557	-0.059077	0.903941	-0.862978	0.329730	-0.382814	-0.275441	-0.942225	-0.190642
607	2242740001													-1.558072	-2.776426	6.688072	-0.493644	-0.095123	0.864446	-0.829855	0.348820	-0.435507	-0.260109	-0.932350	-0.251131
608	2242756668													-0.834841	-3.010980	7.429354	-0.562755	-0.112212	0.818972	-0.788599	0.369911	-0.491201	-0.247828	-0.922266	-0.296660
609	2242773335													0.091989	-2.666906	7.301268	-0.628891	-0.109486	0.769746	-0.738933	0.392087	-0.547947	-0.241815	-0.913389	-0.327483
610	2242790002													0.589891	-1.473584	6.595657	-0.690664	-0.088331	0.717761	-0.680674	0.414640	-0.603950	-0.244265	-0.905688	-0.346501
611	2242806669													0.152880	0.367095	6.459833	-0.747694	-0.054967	0.661765	-0.614061	0.436549	-0.657536	-0.252750	-0.898000	-0.360158
612	2242823336													0.405879	1.537978	7.081247	-0.800625	-0.017529	0.598909	-0.539233	0.456838	-0.707479	-0.261203	-0.889377	-0.375208
613	2242840003													2.090344	2.239040	6.012176	-0.850333	0.016309	0.525993	-0.456719	0.473662	-0.753029	-0.261424	-0.880556	-0.395322
614	2242856670													2.889244	2.292823	5.515551	-0.896162	0.041940	0.441741	-0.367913	0.486306	-0.792557	-0.248061	-0.872782	-0.420378
615	2242873337													3.491961	1.981757	4.092456	-0.934733	0.064766	0.349399	-0.274155	0.494129	-0.825031	-0.226082	-0.866973	-0.444122
616	2242890004													4.539504	1.228915	2.107920	-0.962774	0.092291	0.254064	-0.176446	0.497468	-0.849348	-0.204776	-0.862559	-0.462665
617	2242906671													5.260324	0.744797	0.629962	-0.978279	0.130633	0.160948	-0.075996	0.496356	-0.864786	-0.192857	-0.858234	-0.475647
618	2242923338													5.481162	0.996172	-1.122437	-0.981067	0.179509	0.072688	0.025144	0.490208	-0.871243	-0.192028	-0.852920	-0.485441
619	2242940005													5.299063	1.888787	-2.303199	-0.972480	0.232722	-0.011060	0.124508	0.478988	-0.868947	-0.196926	-0.846410	-0.494782
620	2242956672													4.954929	2.982240	-2.984144	-0.954399	0.284153	-0.091536	0.220228	0.463141	-0.858487	-0.201547	-0.839498	-0.504600
621	2242973339													4.626652	3.642833	-4.269023	-0.929486	0.326900	-0.170858	0.310526	0.443495	-0.840765	-0.199071	-0.834535	-0.513734
622	2242990006													4.278617	2.706904	-5.650847	-0.899583	0.358794	-0.249033	0.394107	0.421120	-0.816908	-0.188229	-0.833022	-0.520235
623	2243006673													4.588902	1.788653	-5.888397	-0.865333	0.384143	-0.321922	0.469672	0.397307	-0.788388	-0.174952	-0.833415	-0.524224
624	2243023340													3.713192	1.146752	-7.038616	-0.827580	0.407645	-0.385924	0.536616	0.372680	-0.757069	-0.164789	-0.833628	-0.527171
625	2243040007													2.523030	0.103555	-7.936004	-0.787667	0.431214	-0.440040	0.595218	0.348227	-0.724192	-0.159047	-0.832342	-0.530953
626	2243056674													1.987130	-0.813587	-8.027550	-0.747517	0.455830	-0.483153	0.645170	0.325198	-0.691377	-0.158030	-0.828532	-0.537179
627	2243073341													0.466736	-2.165150	-8.412737	-0.709296	0.482089	-0.514285	0.686079	0.304619	-0.660683	-0.161847	-0.821460	-0.546817
628	2243090008													-0.998592	-3.398330	-8.709978	-0.674822	0.510989	-0.532453	0.717937	0.287555	-0.633939	-0.170826	-0.810063	-0.560906
629	2243106675													-1.929290	-3.658080	-8.452141	-0.646521	0.541093	-0.537800	0.740436	0.275257	-0.613179	-0.183753	-0.794640	-0.578604
630	2243123342													-2.912160	-3.367719	-8.467610	-0.625822	0.571062	-0.531259	0.753777	0.267796	-0.600088	-0.200418	-0.775999	-0.598046
631	2243140009													-3.690649	-2.343107	-8.624179	-0.616186	0.592631	-0.518752	0.757737	0.266419	-0.595697	-0.214823	-0.760137	-0.613223
632	2243156676													-3.484415	-1.196470	-8.123922	-0.619160	0.601484	-0.504835	0.752658	0.271227	-0.599952	-0.223936	-0.751434	-0.620645
633	2243173343													-2.653874	-0.510916	-7.467606	-0.634803	0.595240	-0.492661	0.738994	0.281518	-0.612075	-0.225639	-0.752621	-0.618587
634	2243190010													-1.972588	-0.744474	-6.961932	-0.660902	0.575369	-0.481829	0.717539	0.296354	-0.630328	-0.219879	-0.762316	-0.608710
635	2243206677													-1.271636	-1.665684	-6.934621	-0.693511	0.547521	-0.468256	0.689197	0.314844	-0.652596	-0.209882	-0.775303	-0.595697
636	2243223344													-0.250416	-2.670404	-6.745450	-0.728695	0.520223	-0.445389	0.654207	0.336450	-0.677358	-0.202526	-0.784964	-0.585503
637	2243240011													-0.023394	-3.015644	-7.263991	-0.763616	0.499583	-0.409033	0.612630	0.360551	-0.703340	-0.203899	-0.787667	-0.581382
638	2243256678													0.550823	-2.360625	-7.289004	-0.796754	0.486461	-0.358523	0.564301	0.386656	-0.729425	-0.216212	-0.783488	-0.582580
639	2243273345													0.853402	-0.955439	-7.045689	-0.828190	0.474941	-0.297544	0.508608	0.413912	-0.754980	-0.235414	-0.776600	-0.584357
640	2243290012													0.746595	0.418638	-6.888337	-0.858450	0.457527	-0.231804	0.445399	0.440888	-0.779255	-0.254330	-0.772196	-0.582262
641	2243306679													1.447649	1.158521	-6.340814	-0.888125	0.428916	-0.165122	0.374317	0.466557	-0.801381	-0.266686	-0.773534	-0.574911
642	2243323346													1.978851	2.005351	-4.881267	-0.915359	0.390789	-0.096962	0.296012	0.489907	-0.819981	-0.272937	-0.779279	-0.564119
643	2243340013													2.589377	2.429931	-3.934547	-0.937571	0.346804	-0.026212	0.212295	0.510974	-0.832969	-0.275483	-0.786532	-0.552699
644	2243356680													3.234573	3.432718	-2.438603	-0.955069	0.293275	0.042814	0.124704	0.528678	-0.839612	-0.268872	-0.796548	-0.541497
645	2243373347													3.350652	4.083372	-0.703297	-0.967554	0.228390	0.108062	0.034054	0.541665	-0.839904	-0.250359	-0.808973	-0.531868
646	2243390014													4.238020	2.708286	1.141940	-0.972922	0.156049	0.170502	-0.057775	0.550070	-0.833118	-0.223795	-0.820409	-0.526160
647	2243406681													4.174696	1.663357	2.945353	-0.967425	0.092146	0.235792	-0.146833	0.554495	-0.819131	-0.206226	-0.827070	-0.522902
648	2243423348													4.716181	0.099869	3.051019	-0.950771	0.046597	0.306371	-0.230179	0.555754	-0.798846	-0.207491	-0.830040	-0.517669
649	2243440015													4.672374	-0.366189	3.014353	-0.923965	0.020586	0.381923	-0.307468	0.553944	-0.773698	-0.227491	-0.832299	-0.505496
650	2243456682													3.035335	0.713636	3.685370	-0.887724	0.010710	0.460251	-0.379252	0.549732	-0.744287	-0.260986	-0.835273	-0.483949
651	2243473349													1.637089	1.855124	4.370244	-0.844227	0.007623	0.535931	-0.446544	0.543021	-0.711145	-0.296443	-0.839685	-0.455029
652	2243490016													0.052203	3.346565	5.505649	-0.798697	-0.003237	0.601724	-0.510615	0.532715	-0.674898	-0.318363	-0.846289	-0.427131
653	2243506683													-0.188883	3.199691	5.526010	-0.755470	-0.029604	0.654515	-0.571313	0.518791	-0.635970	-0.320729	-0.854389	-0.408844
654	2243523350													0.777460	1.040617	5.160957	-0.713332	-0.065690	0.697740	-0.627646	0.502822	-0.594332	-0.311797	-0.861890	-0.399909
655	2243540017													1.922736	-1.292863	4.820129	-0.668440	-0.096389	0.737494	-0.677988	0.486663	-0.550900	-0.305810	-0.868256	-0.390656
656	2243556684													2.385772	-2.559014	4.702636	-0.618137	-0.108912	0.778488	-0.721664	0.471233	-0.507091	-0.311621	-0.875259	-0.369885
657	2243573351													1.551042	-2.040486	4.596706	-0.562167	-0.101390	0.820785	-0.759413	0.456303	-0.463767	-0.327505	-0.884029	-0.333516
658	2243590018													0.194638	-0.819209	4.561504	-0.503008	-0.080176	0.860555	-0.792117	0.441068	-0.421912	-0.345736	-0.893885	-0.285370
659	2243606685													-0.895354	0.008233	4.339842	-0.445779	-0.055878	0.893398	-0.820521	0.424450	-0.382868	-0.357808	-0.903726	-0.235060
660	2243623352													-1.327243	-0.362473	4.028956	-0.395036	-0.034871	0.918004	-0.844347	0.407518	-0.347860	-0.361973	-0.912531	-0.190428
661	2243640019													-1.420857	-0.678527	3.203832	-0.353273	-0.019893	0.935309	-0.863012	0.392854	-0.317610	-0.361122	-0.919386	-0.155952
662	2243656686													-2.006875	-0.973232	2.378319	-0.321306	-0.011289	0.946908	-0.876441	0.382225	-0.292838	-0.358626	-0.924000	-0.132705
663	2243673353													-2.665145	-1.127601	1.854234	-0.298562	-0.008048	0.954356	-0.885649	0.374967	-0.273906	-0.355648	-0.927003	-0.119078
664	2243690020													-2.548103	-1.364916	1.172596	-0.283708	-0.008474	0.958873	-0.892011	0.369285	-0.260662	-0.351889	-0.929277	-0.112328
665	2243706687													-2.090825	-1.941679	0.964520	-0.275044	-0.010725	0.961372	-0.896487	0.364138	-0.252418	-0.347365	-0.931283	-0.109768
666	2243723354													-2.140023	-2.556037	1.189182	-0.270818	-0.011520	0.962562	-0.899395	0.359465	-0.248743	-0.343142	-0.933087	-0.107711
667	2243740021													-2.283562	-2.163833	1.109689	-0.270774	-0.010809	0.962582	-0.900746	0.355616	-0.249386	-0.339614	-0.934570	-0.106027
668	2243756688													-2.557828	-1.445537	0.902366	-0.274852	-0.009723	0.961437	-0.900495	0.353078	-0.253859	-0.336995	-0.935543	-0.105800
669	2243773355													-3.100536	-1.367604	1.012639	-0.283380	-0.010076	0.958955	-0.898420	0.352574	-0.261787	-0.335464	-0.935730	-0.108965
670	2243790022													-3.377282	-1.057083	1.027729	-0.296780	-0.012904	0.954859	-0.894381	0.354183	-0.273196	-0.334670	-0.935087	-0.116656
671	2243806689													-3.541879	-0.784473	1.079688	-0.316507	-0.021640	0.948343	-0.888254	0.357620	-0.288292	-0.332908	-0.933616	-0.132411
672	2243823356													-3.962221	-0.863511	1.389142	-0.343538	-0.038103	0.938365	-0.879862	0.362416	-0.307404	-0.328365	-0.931237	-0.158029
673	2243840023													-3.918239	-1.198871	1.982750	-0.378006	-0.060836	0.923802	-0.868640	0.368501	-0.331167	-0.320275	-0.927634	-0.192141
674	2243856690													-3.919735	-1.280715	2.927959	-0.419730	-0.088110	0.903362	-0.853789	0.376076	-0.360016	-0.308012	-0.922390	-0.233078
675	2243873357													-4.156539	-1.420238	4.157413	-0.467957	-0.115367	0.876189	-0.833933	0.385819	-0.394588	-0.292528	-0.915333	-0.276755
676	2243890024													-3.533625	-1.819448	5.282558	-0.521672	-0.139353	0.841688	-0.807724	0.398291	-0.434679	-0.274663	-0.906612	-0.320336
677	2243906691													-2.601016	-1.753607	6.073831	-0.578776	-0.157065	0.800218	-0.774402	0.413396	-0.478963	-0.255579	-0.896903	-0.360895
678	2243923358													-2.022761	-1.486204	6.508457	-0.637756	-0.168738	0.751528	-0.733603	0.430405	-0.525907	-0.234721	-0.886724	-0.398281
679	2243940025													-1.855625	-1.132408	7.500956	-0.697438	-0.174400	0.695100	-0.684712	0.448471	-0.574494	-0.211540	-0.876618	-0.432194
680	2243956692													-1.491566	-0.292167	8.057560	-0.756323	-0.174033	0.630625	-0.627223	0.466862	-0.623403	-0.185922	-0.867036	-0.462256
681	2243973359													-0.192085	0.222269	7.843691	-0.812779	-0.169230	0.557451	-0.561021	0.485227	-0.670679	-0.156991	-0.857855	-0.489324
682	2243990026													1.232772	0.103193	7.541956	-0.864755	-0.157743	0.476776	-0.485853	0.502998	-0.714800	-0.127063	-0.849771	-0.511610
683	2244006693													2.537676	0.011822	6.688879	-0.910093	-0.136439	0.391299	-0.402127	0.518895	-0.754348	-0.100120	-0.843879	-0.527109
684	2244023360													3.181470	0.761788	6.262070	-0.947498	-0.105864	0.301728	-0.310369	0.531491	-0.788155	-0.076928	-0.840422	-0.536444
685	2244040027													4.027202	1.263315	4.934186	-0.975492	-0.065815	0.209960	-0.211796	0.539507	-0.814908	-0.059642	-0.839405	-0.540224
686	2244056694													4.939075	1.245379	2.623681	-0.992791	-0.016978	0.118646	-0.108835	0.542312	-0.833098	-0.050198	-0.840006	-0.540250
687	2244073361													5.423882	1.656962	1.180171	-0.998771	0.039743	0.029617	-0.003510	0.539321	-0.842093	-0.049440	-0.841162	-0.538518
688	2244090028													5.751831	2.193795	-0.449988	-0.993364	0.099706	-0.057321	0.101755	0.529654	-0.842088	-0.053601	-0.842333	-0.536285
689	2244106695													5.729781	2.630809	-1.727375	-0.977067	0.159264	-0.141335	0.204274	0.513719	-0.833285	-0.060106	-0.843046	-0.534472
690	2244123362													5.727368	2.266368	-3.670867	-0.950923	0.216798	-0.220779	0.301764	0.491966	-0.816644	-0.068431	-0.843189	-0.533244
691	2244140029													5.293466	2.054476	-4.845222	-0.916462	0.271216	-0.294177	0.392417	0.465652	-0.793207	-0.078146	-0.842384	-0.533182
692	2244156696													4.536054	2.005067	-5.763896	-0.875656	0.320854	-0.360942	0.474894	0.436263	-0.764298	-0.087762	-0.840671	-0.534387
693	2244173363													3.772182	1.636405	-6.493989	-0.831040	0.362607	-0.421769	0.548123	0.405035	-0.731784	-0.094518	-0.839323	-0.535354
694	2244190030													2.742494	1.252391	-6.717120	-0.784799	0.394710	-0.477802	0.612125	0.373111	-0.697203	-0.096920	-0.839638	-0.534429
695	2244206697													2.408328	0.728682	-6.039668	-0.738294	0.418853	-0.528663	0.667563	0.341822	-0.661451	-0.096342	-0.841261	-0.531976
696	2244223364													1.721342	-0.019976	-6.267435	-0.692207	0.437955	-0.573624	0.715388	0.311505	-0.625447	-0.095231	-0.843303	-0.528934
697	2244240031													1.310215	-0.777799	-5.216023	-0.647087	0.453651	-0.612764	0.756582	0.282842	-0.589563	-0.094141	-0.845104	-0.526248
698	2244256698													0.859728	-1.130744	-4.136735	-0.602718	0.468419	-0.645999	0.792338	0.255432	-0.554036	-0.094512	-0.845777	-0.525099
699	2244273365													0.613968	-0.930396	-3.798188	-0.558907	0.481778	-0.674917	0.823756	0.229211	-0.518544	-0.095125	-0.845785	-0.524975
700	2244290032													0.766462	-1.025485	-4.348602	-0.516131	0.495389	-0.698712	0.851046	0.204616	-0.483584	-0.096595	-0.844229	-0.527207
701	2244306699													0.299782	-0.863024	-4.994264	-0.475457	0.509138	-0.717439	0.874209	0.182138	-0.450094	-0.098487	-0.841192	-0.531692
702	2244323366													0.564522	-0.199636	-5.136376	-0.437940	0.523114	-0.731136	0.893414	0.162687	-0.418742	-0.100104	-0.836591	-0.538605
703	2244340033													-0.339553	-0.424702	-5.382716	-0.404617	0.537567	-0.739802	0.908819	0.146448	-0.390642	-0.101653	-0.830407	-0.547806
704	2244356700													-1.276802	-0.876462	-5.930410	-0.377003	0.551313	-0.744260	0.920522	0.134091	-0.366960	-0.102511	-0.823452	-0.558049
705	2244373367													-2.193158	-1.079573	-6.082184	-0.356564	0.563178	-0.745448	0.928648	0.126231	-0.348825	-0.102352	-0.816637	-0.568003
706	2244390034													-2.706534	-1.225318	-5.937076	-0.344483	0.572452	-0.744063	0.933267	0.122960	-0.337480	-0.101701	-0.810666	-0.576608
707	2244406701													-3.195495	-1.477598	-5.747053	-0.341672	0.578449	-0.740714	0.934378	0.124390	-0.333863	-0.100986	-0.806179	-0.582991
708	2244423368													-3.301830	-1.908756	-5.378305	-0.348158	0.581202	-0.735521	0.931982	0.130089	-0.338358	-0.100971	-0.803294	-0.586961
709	2244440035													-3.204776	-2.298833	-5.158170	-0.363399	0.581654	-0.727750	0.925988	0.139643	-0.350778	-0.102406	-0.801360	-0.589351
710	2244456702													-3.092180	-2.379974	-5.160602	-0.386944	0.579592	-0.717180	0.916085	0.152915	-0.370682	-0.105177	-0.800431	-0.590125
711	2244473369													-2.470797	-2.052280	-5.241993	-0.418351	0.573628	-0.704225	0.901792	0.169776	-0.397426	-0.108414	-0.801328	-0.588319
712	2244490036													-1.865464	-1.968909	-5.157062	-0.456750	0.563145	-0.688657	0.882568	0.189743	-0.430199	-0.111596	-0.804280	-0.583678
713	2244506703													-1.512305	-1.936708	-5.243535	-0.500819	0.548697	-0.669411	0.857923	0.212231	-0.467895	-0.114663	-0.808635	-0.577029
714	2244523370													-0.761502	-2.249963	-5.367065	-0.548827	0.533329	-0.643700	0.827410	0.236882	-0.509195	-0.119088	-0.812064	-0.571289
715	2244540037													-0.238617	-2.597526	-5.739321	-0.599052	0.521260	-0.607803	0.790424	0.263692	-0.552898	-0.127931	-0.811637	-0.569982
716	2244556704													0.465683	-1.953293	-6.064807	-0.649993	0.512366	-0.561240	0.746544	0.292455	-0.597613	-0.142059	-0.807435	-0.572597
717	2244573371													0.412727	-1.248918	-6.296191	-0.700686	0.502783	-0.506210	0.695403	0.322612	-0.642134	-0.159545	-0.801954	-0.575686
718	2244590038													1.396972	-0.753198	-6.440655	-0.750447	0.488822	-0.444840	0.636520	0.353299	-0.685581	-0.177966	-0.797642	-0.576277
719	2244606705													2.192898	0.398931	-5.895445	-0.797963	0.470054	-0.377233	0.569566	0.383427	-0.727034	-0.197104	-0.795005	-0.573687
720	2244623372													2.566039	2.738719	-4.481873	-0.841705	0.445582	-0.304942	0.495336	0.412467	-0.764535	-0.214884	-0.794562	-0.567888
721	2244640039													2.977330	2.607673	-4.531330	-0.880742	0.413768	-0.230413	0.414871	0.439414	-0.796741	-0.228419	-0.797315	-0.558671
722	2244656706													4.658499	1.570120	-3.963301	-0.914350	0.374103	-0.154955	0.329107	0.463637	-0.822635	-0.235907	-0.803173	-0.547047
723	2244673373													5.463967	1.044885	-3.161311	-0.939233	0.335299	-0.073588	0.238948	0.484666	-0.841429	-0.246464	-0.807882	-0.535334
724	2244690040													5.060332	3.515531	-0.295961	-0.953955	0.299686	0.012578	0.146471	0.502017	-0.852365	-0.261757	-0.811275	-0.522797
725	2244706707													4.565854	6.185984	3.583121	-0.961271	0.258979	0.094278	0.054656	0.514413	-0.855799	-0.270132	-0.817502	-0.508645
726	2244723374													3.624892	6.092616	4.351615	-0.964691	0.205172	0.165154	-0.034921	0.521874	-0.852307	-0.261059	-0.827980	-0.496283
727	2244740041													4.031306	2.999709	3.582462	-0.963618	0.141286	0.226888	-0.121109	0.525926	-0.841864	-0.238270	-0.838713	-0.489681
728	2244756708													4.639904	-0.452765	2.411201	-0.953119	0.086533	0.289958	-0.202993	0.527785	-0.824765	-0.224405	-0.844959	-0.485476
729	2244773375													3.600096	-0.689706	2.880513	-0.931362	0.053694	0.360115	-0.279696	0.527706	-0.802058	-0.233100	-0.847728	-0.476467
730	2244790042													1.826826	1.648710	4.208818	-0.901647	0.034155	0.431122	-0.351015	0.524529	-0.775666	-0.252629	-0.850707	-0.460951
731	2244806709													0.651185	2.879393	3.829391	-0.868796	0.011883	0.495028	-0.418435	0.516943	-0.746781	-0.264776	-0.855937	-0.444145
732	2244823376													1.116497	1.463966	3.247856	-0.833796	-0.017119	0.551807	-0.483598	0.504785	-0.715070	-0.266302	-0.863076	-0.429166
733	2244840043													2.020402	-0.735873	2.686519	-0.793240	-0.041725	0.607478	-0.546516	0.488699	-0.680069	-0.268498	-0.871454	-0.410459
734	2244856710													2.036155	-1.370661	2.771234	-0.745214	-0.053450	0.664680	-0.605990	0.470241	-0.641599	-0.278266	-0.880918	-0.382821
735	2244873377													1.665805	-1.391061	3.624724	-0.690836	-0.053248	0.721048	-0.661031	0.450510	-0.600065	-0.292887	-0.891182	-0.346428
736	2244890044													0.297132	-0.144413	4.782334	-0.633100	-0.048184	0.772569	-0.711206	0.430195	-0.555984	-0.305566	-0.901449	-0.306625
737	2244906711													-0.806736	-0.021934	5.240292	-0.574918	-0.041542	0.817156	-0.755713	0.409786	-0.510856	-0.313637	-0.911235	-0.266987
738	2244923378													-1.145209	-0.535301	5.535893	-0.518260	-0.033101	0.854582	-0.793605	0.391038	-0.466134	-0.318744	-0.919779	-0.228929
739	2244940045													-1.235394	-1.002106	4.983385	-0.464574	-0.022588	0.885246	-0.824573	0.375530	-0.423151	-0.322878	-0.926535	-0.193087
740	2244956712													-1.577604	-1.333049	4.497520	-0.415335	-0.010249	0.909611	-0.848873	0.363787	-0.383503	-0.326974	-0.931426	-0.159794
741	2244973379													-2.434781	-1.544590	3.948584	-0.371828	0.003455	0.928295	-0.867415	0.354902	-0.348763	-0.330658	-0.934897	-0.128965
742	2244990046													-2.914834	-1.376165	3.184954	-0.335402	0.017051	0.941921	-0.881439	0.347228	-0.320151	-0.332521	-0.937626	-0.101432
743	2245006713													-3.264066	-1.331238	2.680225	-0.307295	0.028528	0.951187	-0.891956	0.339709	-0.298348	-0.331638	-0.940098	-0.078945
744	2245023380													-3.225235	-1.372597	2.506761	-0.288562	0.036742	0.956756	-0.899468	0.332086	-0.284037	-0.328162	-0.942533	-0.062780
745	2245040047													-2.831428	-1.502947	1.860439	-0.279031	0.041702	0.959376	-0.904250	0.324865	-0.277119	-0.323224	-0.944841	-0.052939
746	2245056714													-2.542797	-1.381630	1.199677	-0.277075	0.044348	0.959824	-0.906545	0.318998	-0.276434	-0.318441	-0.946717	-0.048183
747	2245073381													-2.516572	-0.926609	0.697314	-0.279578	0.045897	0.959025	-0.907124	0.314647	-0.279506	-0.314583	-0.948098	-0.046335
748	2245090048													-2.555336	-0.747898	0.191450	-0.284165	0.047900	0.957578	-0.906857	0.310774	-0.284659	-0.311225	-0.949276	-0.044872
749	2245106715													-2.371585	-1.164995	-0.190058	-0.288642	0.051541	0.956049	-0.906315	0.307219	-0.290189	-0.308673	-0.950242	-0.041964
750	2245123382													-2.216186	-1.050854	-0.523975	-0.292508	0.055556	0.954648	-0.905732	0.304131	-0.295219	-0.306739	-0.951009	-0.038642
751	2245140049													-2.280606	-0.730838	-0.838027	-0.296799	0.056289	0.953280	-0.905076	0.301778	-0.299610	-0.304544	-0.951715	-0.038621
752	2245156716													-2.522316	-0.755273	-0.465535	-0.303104	0.052372	0.951517	-0.903998	0.300128	-0.304486	-0.301524	-0.952460	-0.043625
753	2245173383													-2.837470	-0.961485	0.269471	-0.313053	0.042938	0.948765	-0.902027	0.299199	-0.311172	-0.297230	-0.953224	-0.054934
754	2245190050													-2.490597	-1.445034	0.973774	-0.327697	0.029245	0.944330	-0.898595	0.299050	-0.321087	-0.291792	-0.953789	-0.071718
755	2245206717													-2.553290	-1.794195	1.692212	-0.348309	0.011103	0.937314	-0.892990	0.300135	-0.335393	-0.285044	-0.953832	-0.094625
756	2245223384													-3.039920	-1.988637	2.368255	-0.375515	-0.010429	0.926757	-0.884433	0.302958	-0.354957	-0.277066	-0.952947	-0.122989
757	2245240051													-3.032963	-2.271327	3.009335	-0.410180	-0.034469	0.911353	-0.871803	0.308240	-0.380721	-0.267792	-0.950684	-0.156484
758	2245256718													-2.975061	-2.631148	3.820146	-0.451866	-0.059129	0.890124	-0.854127	0.316641	-0.412559	-0.257456	-0.946701	-0.193584
759	2245273385													-2.884561	-2.634464	4.866290	-0.499765	-0.083928	0.862085	-0.830664	0.328452	-0.449573	-0.245422	-0.940784	-0.233865
760	2245290052													-2.712137	-2.560476	5.786712	-0.552880	-0.108252	0.826199	-0.800692	0.343521	-0.490801	-0.230686	-0.932885	-0.276603
761	2245306719													-1.903497	-2.592654	6.482077	-0.610004	-0.132432	0.781253	-0.763650	0.361412	-0.534996	-0.211504	-0.922954	-0.321594
762	2245323386													-1.701466	-2.580935	7.469627	-0.669643	-0.153498	0.726648	-0.718450	0.381779	-0.581441	-0.188169	-0.911418	-0.365936
763	2245340053													-0.546652	-2.857406	7.727774	-0.729488	-0.166806	0.663343	-0.664209	0.404322	-0.628768	-0.163322	-0.899277	-0.405742
764	2245356720													0.447035	-2.817119	6.992674	-0.786553	-0.167766	0.594297	-0.601112	0.428404	-0.674637	-0.141419	-0.887876	-0.437809
765	2245373387													1.284081	-2.651384	6.588873	-0.838824	-0.153210	0.522399	-0.529427	0.453092	-0.717227	-0.126808	-0.878200	-0.461178
766	2245390054													2.046070	-2.265720	6.114525	-0.884617	-0.120429	0.450499	-0.449526	0.477142	-0.755157	-0.124010	-0.870536	-0.476224
767	2245406721													2.399131	-0.693157	6.379946	-0.922327	-0.069807	0.380052	-0.362109	0.499431	-0.787048	-0.134869	-0.863537	-0.485917
768	2245423388													3.517396	1.821962	5.809368	-0.952047	-0.012291	0.305706	-0.267609	0.517770	-0.812588	-0.148298	-0.855431	-0.496231
769	2245440055													4.372127	2.236988	5.086438	-0.973493	0.044769	0.224291	-0.167037	0.530720	-0.830924	-0.156235	-0.846364	-0.509174
770	2245456722													4.864244	2.303645	3.846594	-0.984915	0.102510	0.139404	-0.063254	0.536580	-0.841476	-0.161061	-0.837600	-0.522001
771	2245473389													5.390826	2.981003	2.514418	-0.985704	0.159654	0.053829	0.040533	0.534816	-0.843996	-0.163536	-0.829748	-0.533642
772	2245490056													5.785838	4.222483	1.779689	-0.976600	0.212377	-0.033892	0.143420	0.525696	-0.838495	-0.160260	-0.823735	-0.543854
773	2245506723													6.480517	4.310516	0.483724	-0.957902	0.258835	-0.124208	0.244657	0.509580	-0.824907	-0.150221	-0.820568	-0.551454
774	2245523390													6.281544	3.225071	-1.081833	-0.929162	0.301794	-0.213490	0.342801	0.487260	-0.803159	-0.138363	-0.819450	-0.556199
775	2245540057													5.671403	2.439145	-2.284125	-0.889945	0.347025	-0.295926	0.436426	0.459621	-0.773486	-0.132405	-0.817509	-0.560488
776	2245556724													5.223169	2.749937	-2.873369	-0.841817	0.392417	-0.370612	0.523696	0.427512	-0.736869	-0.130719	-0.814397	-0.565394
777	2245573391													4.197800	2.684736	-4.344807	-0.786549	0.434025	-0.439275	0.603806	0.391415	-0.694416	-0.129455	-0.811429	-0.569934
778	2245590058													4.124898	2.740686	-4.469627	-0.725545	0.469957	-0.502718	0.676424	0.352595	-0.646628	-0.126632	-0.809208	-0.573713
779	2245606725													3.391592	2.469305	-5.467287	-0.659548	0.501573	-0.559840	0.741433	0.311663	-0.594258	-0.123582	-0.807026	-0.577439
780	2245623392													3.028215	2.340979	-5.821767	-0.590155	0.528916	-0.609889	0.798284	0.269812	-0.538464	-0.120247	-0.804642	-0.581456
781	2245640059													1.824254	1.809674	-6.601882	-0.518703	0.552472	-0.652474	0.846845	0.227143	-0.480894	-0.117476	-0.801986	-0.585678
782	2245656726													1.391970	1.266301	-6.887643	-0.446721	0.573560	-0.686636	0.887132	0.184537	-0.423016	-0.115915	-0.798107	-0.591260
783	2245673393													-0.165593	0.531008	-7.127286	-0.375822	0.593017	-0.712102	0.919402	0.142412	-0.366632	-0.116007	-0.792496	-0.598742
784	2245690060													-0.717437	0.130629	-6.950608	-0.307854	0.610323	-0.729885	0.944277	0.102077	-0.312925	-0.116481	-0.785549	-0.607738
785	2245706727													-1.931614	-0.545637	-7.010961	-0.245057	0.624634	-0.741471	0.962433	0.064506	-0.263744	-0.116914	-0.778249	-0.616976
786	2245723394													-2.256288	-1.085346	-6.468826	-0.189332	0.634081	-0.749729	0.974910	0.030360	-0.220521	-0.117067	-0.772670	-0.623920
787	2245740061													-3.081567	-2.058829	-5.397879	-0.141142	0.639796	-0.755474	0.982947	-0.000296	-0.183890	-0.117876	-0.768545	-0.628843
788	2245756728													-3.180592	-3.126012	-4.344720	-0.101354	0.642451	-0.759594	0.987661	-0.026648	-0.154325	-0.119388	-0.765863	-0.631823
789	2245773395													-3.336601	-3.433970	-3.424186	-0.070007	0.643698	-0.762071	0.990109	-0.048275	-0.131732	-0.121585	-0.763755	-0.633952
790	2245790062													-3.284969	-3.266307	-2.822492	-0.046806	0.643486	-0.764025	0.991161	-0.065132	-0.115577	-0.124135	-0.762682	-0.634750
791	2245806729													-2.934713	-2.997259	-2.246669	-0.030609	0.641926	-0.766156	0.991462	-0.077706	-0.104717	-0.126755	-0.762819	-0.634066
792	2245823396													-2.209365	-2.560935	-1.958044	-0.019974	0.640988	-0.767291	0.991399	-0.086583	-0.098139	-0.129340	-0.762652	-0.633746
793	2245840063													-1.848287	-2.026286	-2.111001	-0.013953	0.641618	-0.766898	0.991173	-0.092249	-0.095213	-0.131835	-0.761457	-0.634667
794	2245856730													-1.280723	-1.033201	-2.536706	-0.011986	0.642804	-0.765937	0.990893	-0.095106	-0.095323	-0.134119	-0.760104	-0.635810
795	2245873397													-0.931856	-0.095116	-3.151818	-0.013789	0.643289	-0.765499	0.990577	-0.095538	-0.098129	-0.136260	-0.759639	-0.635910
796	2245890064													-0.593913	0.453846	-3.956543	-0.019530	0.642404	-0.766117	0.990163	-0.093760	-0.103862	-0.138552	-0.760609	-0.634254
797	2245906731													-0.291142	0.595138	-4.641048	-0.029121	0.640919	-0.767056	0.989516	-0.090113	-0.112861	-0.141457	-0.762301	-0.631575
798	2245923398													0.030481	0.728508	-5.127343	-0.042524	0.639917	-0.767267	0.988453	-0.084847	-0.125546	-0.145439	-0.763746	-0.628920
799	2245940065													-0.009186	0.496541	-5.415628	-0.060040	0.639602	-0.766358	0.986742	-0.077941	-0.142355	-0.150781	-0.764745	-0.626443
800	2245956732													-0.162652	-0.091188	-5.627196	-0.082056	0.639455	-0.764437	0.984111	-0.069193	-0.163516	-0.157455	-0.765709	-0.623617
801	2245973399													-0.000592	-0.624000	-5.574023	-0.109337	0.639082	-0.761327	0.980150	-0.058119	-0.189550	-0.165385	-0.766939	-0.620042
802	2245990066													-0.250556	-1.051335	-5.344516	-0.142477	0.638751	-0.756107	0.974296	-0.044161	-0.220899	-0.174490	-0.768145	-0.616041
803	2246006733													-0.309914	-1.417911	-5.087529	-0.181634	0.638454	-0.747921	0.965884	-0.026945	-0.257569	-0.184599	-0.769188	-0.611778
804	2246023400													-0.407238	-1.662600	-5.012859	-0.226819	0.637820	-0.736029	0.954110	-0.006194	-0.299391	-0.195516	-0.770161	-0.607146
805	2246040067													-0.547069	-1.647718	-5.046387	-0.278012	0.635994	-0.719876	0.938023	0.018303	-0.346090	-0.206935	-0.771477	-0.601665
806	2246056734													-0.557192	-1.540761	-5.155569	-0.334699	0.632145	-0.698834	0.916599	0.046294	-0.397119	-0.218685	-0.773466	-0.594918
807	2246073401													-0.305282	-1.410225	-5.372251	-0.395964	0.626557	-0.671296	0.888616	0.077184	-0.452111	-0.231460	-0.775544	-0.587331
808	2246090068													0.297763	-1.105143	-5.352081	-0.459962	0.620505	-0.635144	0.852983	0.110051	-0.510204	-0.246686	-0.776442	-0.579900
809	2246106735													0.541828	-0.426132	-5.398891	-0.525182	0.612991	-0.590277	0.808736	0.143664	-0.570357	-0.264822	-0.776919	-0.571197
810	2246123402													0.750642	0.582346	-5.372364	-0.590820	0.600845	-0.538439	0.755277	0.177221	-0.630991	-0.283705	-0.779473	-0.558510
811	2246140069													1.472244	0.421624	-5.293174	-0.656121	0.581274	-0.481276	0.692287	0.209743	-0.690468	-0.300407	-0.786211	-0.540025
812	2246156736													2.517226	0.420595	-4.693444	-0.718427	0.556569	-0.417247	0.619990	0.240372	-0.746883	-0.315397	-0.795269	-0.517756
813	2246173403													3.454002	1.081369	-3.126693	-0.773655	0.532070	-0.344033	0.539608	0.268709	-0.797884	-0.332086	-0.802930	-0.494997
814	2246190070													3.656882	2.296478	-2.115841	-0.820135	0.507861	-0.263543	0.452827	0.294567	-0.841533	-0.349751	-0.809511	-0.471558
815	2246206737													3.996514	3.057855	-1.421834	-0.859646	0.477223	-0.182392	0.362028	0.317119	-0.876568	-0.360478	-0.819569	-0.445378
816	2246223404													5.396327	1.599331	0.141335	-0.893271	0.437485	-0.103316	0.268684	0.335364	-0.902962	-0.360384	-0.834349	-0.417116
817	2246240071													5.290215	0.277019	0.746910	-0.918362	0.395039	-0.023584	0.173843	0.349168	-0.920793	-0.355514	-0.849721	-0.389338
818	2246256738													4.409920	0.625954	2.312563	-0.931431	0.359085	0.059121	0.079715	0.359826	-0.929608	-0.355081	-0.861152	-0.363777
819	2246273405													3.920211	1.419329	3.725757	-0.932911	0.330873	0.142126	-0.011148	0.367952	-0.929778	-0.359934	-0.868984	-0.339578
820	2246290072													3.531377	1.833762	4.551232	-0.926668	0.303891	0.221216	-0.097747	0.373454	-0.922484	-0.362949	-0.876460	-0.316364
821	2246306739													3.045247	1.119117	4.448800	-0.915263	0.274422	0.294935	-0.179949	0.376521	-0.908763	-0.360434	-0.884830	-0.295234
822	2246323406													2.275444	0.504997	4.473178	-0.898742	0.244262	0.364141	-0.258037	0.376809	-0.889625	-0.354513	-0.893505	-0.275626
823	2246340073													0.882572	1.532679	4.368664	-0.877190	0.215700	0.428966	-0.331443	0.374378	-0.866018	-0.347395	-0.901840	-0.256908
824	2246356740													0.282321	1.618887	4.987693	-0.852559	0.186111	0.488371	-0.399851	0.369455	-0.838822	-0.336545	-0.910421	-0.240565
825	2246373407													0.421977	0.340649	5.039881	-0.824887	0.158093	0.542741	-0.462892	0.362207	-0.809035	-0.324487	-0.918593	-0.225600
826	2246390074													0.769327	-0.849115	4.106146	-0.793558	0.135782	0.593152	-0.520529	0.353370	-0.777290	-0.315143	-0.925577	-0.209741
827	2246406741													0.906878	-2.243006	3.601076	-0.758112	0.123908	0.640244	-0.572343	0.344128	-0.744311	-0.312552	-0.930711	-0.189970
828	2246423408													0.023814	-1.907248	3.718105	-0.719195	0.122983	0.683837	-0.618615	0.334768	-0.710806	-0.316344	-0.934241	-0.164684
829	2246440075													-1.508218	0.109227	3.946357	-0.679865	0.125766	0.722473	-0.659900	0.324799	-0.677523	-0.319868	-0.937384	-0.137827
830	2246456742													-2.323551	0.757169	3.963798	-0.643429	0.123887	0.755414	-0.696645	0.314279	-0.644914	-0.317308	-0.941212	-0.115911
831	2246473409													-2.339238	-0.094090	3.505922	-0.610455	0.116538	0.783430	-0.728836	0.304563	-0.613220	-0.310068	-0.945336	-0.100985
832	2246490076													-1.973022	-1.542162	2.919128	-0.579483	0.109152	0.807642	-0.756477	0.296665	-0.582866	-0.303220	-0.948723	-0.089341
833	2246506743													-1.642401	-2.472970	2.283265	-0.548976	0.107303	0.828922	-0.779859	0.291075	-0.554162	-0.300741	-0.950664	-0.076112
834	2246523410													-1.504883	-2.561840	1.878315	-0.518129	0.113505	0.847738	-0.799586	0.287604	-0.527207	-0.303653	-0.951000	-0.058258
835	2246540077													-1.654668	-1.826039	1.575947	-0.487347	0.125044	0.864209	-0.816548	0.285440	-0.501771	-0.309423	-0.950204	-0.037004
836	2246556744													-1.974317	-0.951934	1.474921	-0.458125	0.137212	0.878234	-0.831303	0.283694	-0.477967	-0.314732	-0.949047	-0.015903
837	2246573411													-2.217305	-0.440961	1.579938	-0.431982	0.145885	0.890005	-0.844163	0.281958	-0.455948	-0.317460	-0.948271	0.001350
838	2246590078													-2.324225	-0.292302	1.617959	-0.410266	0.149167	0.899684	-0.855018	0.280238	-0.436361	-0.317217	-0.948270	0.012569
