// Start Time: Unknown
// Update Rate: 100.0Hz
//Filter Profile: human (46.1)
// Option Flags: AHS Disabled ICC Disabled
// Firmware Version: 4.0.2
PacketCounter	SampleTimeFine	Year	Month	Day	Second	UTC_Nano	UTC_Year	UTC_Month	UTC_Day	UTC_Hour	UTC_Minute	UTC_Second	UTC_Valid	Acc_X	Acc_Y	Acc_Z	Mat[1][1]	Mat[1][2]	Mat[1][3]	Mat[2][1]	Mat[2][2]	Mat[2][3]	Mat[3][1]	Mat[3][2]	Mat[3][3]
1	615888994													0.060671	0.076491	-0.113786	-0.179968	0.688934	0.702126	0.856147	-0.241777	0.456680	0.484381	0.683311	-0.546317
2	615905661													-0.017659	0.011102	-0.072026	-0.179684	0.687925	0.703188	0.856950	-0.241557	0.455288	0.483063	0.684405	-0.546113
3	615922328													-0.072473	0.023690	-0.196878	-0.179943	0.685976	0.705023	0.857020	-0.242479	0.454665	0.482843	0.686033	-0.544262
4	615938995													-0.016957	0.030055	-0.109371	-0.181171	0.685505	0.705167	0.856629	-0.242213	0.455543	0.483077	0.686598	-0.543341
5	615955662													0.119248	0.004655	-0.125089	-0.182101	0.683843	0.706540	0.856452	-0.242683	0.455625	0.483041	0.688087	-0.541486
6	615972329													0.045165	-0.111031	-0.149210	-0.182180	0.683204	0.707137	0.856723	-0.242636	0.455142	0.482531	0.688738	-0.541113
7	615988996													-0.040226	-0.198266	-0.099476	-0.182005	0.682759	0.707612	0.856692	-0.243127	0.454938	0.482652	0.689006	-0.540664
8	616005663													-0.122602	-0.235926	-0.097342	-0.181828	0.682411	0.707993	0.856241	-0.244156	0.455235	0.483518	0.688987	-0.539914
9	616022330													-0.154237	-0.278067	-0.055160	-0.181686	0.682306	0.708130	0.855536	-0.245356	0.455915	0.484817	0.688665	-0.539160
10	616038997													-0.034299	-0.196876	-0.093844	-0.181330	0.682803	0.707742	0.854767	-0.246451	0.456765	0.486305	0.687780	-0.538949
11	616055664													0.067682	-0.032786	-0.127892	-0.180726	0.683415	0.707306	0.854157	-0.247469	0.457358	0.487601	0.686807	-0.539019
12	616072331													0.033506	-0.054704	-0.221274	-0.180543	0.684138	0.706654	0.853631	-0.247906	0.458102	0.488588	0.685928	-0.539244
13	616088998													-0.086259	-0.106780	-0.102286	-0.180628	0.685432	0.705377	0.853067	-0.247777	0.459219	0.489540	0.684682	-0.539964
14	616105665													-0.076318	-0.019217	-0.075223	-0.180520	0.687386	0.703500	0.852397	-0.247535	0.460593	0.490747	0.682807	-0.541241
15	616122332													0.085386	0.150565	-0.107152	-0.180433	0.689427	0.701522	0.851816	-0.247081	0.461910	0.491787	0.680912	-0.542683
16	616138999													0.060659	0.159491	-0.194303	-0.180530	0.690966	0.699982	0.851403	-0.246548	0.462955	0.492465	0.679544	-0.543781
17	616155666													0.092574	0.258363	-0.180034	-0.181072	0.691856	0.698962	0.851089	-0.245896	0.463878	0.492809	0.678874	-0.544306
18	616172333													0.018154	0.160190	-0.101189	-0.182078	0.692392	0.698169	0.850881	-0.244905	0.464783	0.492797	0.678686	-0.544552
19	616189000													-0.056039	0.023563	-0.052986	-0.182958	0.693128	0.697209	0.850742	-0.243798	0.465619	0.492711	0.678333	-0.545068
20	616205667													0.056307	0.146591	-0.156858	-0.183783	0.694038	0.696086	0.850569	-0.242668	0.466525	0.492703	0.677808	-0.545729
21	616222334													0.126252	0.122799	-0.143480	-0.184768	0.694764	0.695100	0.850483	-0.241388	0.467343	0.492482	0.677521	-0.546284
22	616239001													0.226991	0.127009	-0.207192	-0.185834	0.694895	0.694684	0.850479	-0.240319	0.467903	0.492089	0.677766	-0.546334
23	616255668													0.187592	0.013873	-0.165077	-0.187275	0.694165	0.695027	0.850503	-0.239438	0.468310	0.491500	0.678825	-0.545549
24	616272335													0.184696	-0.046293	-0.113947	-0.188557	0.693583	0.695262	0.850568	-0.238546	0.468647	0.490898	0.679734	-0.544960
25	616289002													0.069836	-0.104293	-0.083434	-0.189874	0.693230	0.695256	0.850608	-0.237498	0.469106	0.490320	0.680461	-0.544572
26	616305669													0.099402	-0.015239	-0.076791	-0.191378	0.693321	0.694752	0.850555	-0.236098	0.469908	0.489827	0.680855	-0.544523
27	616322336													0.186615	0.127611	-0.065110	-0.193019	0.693293	0.694325	0.850454	-0.234712	0.470785	0.489358	0.681362	-0.544311
28	616339003													0.230153	0.160951	-0.131425	-0.194815	0.692620	0.694496	0.850304	-0.233680	0.471569	0.488908	0.682401	-0.543413
29	616355670													0.352880	0.195594	-0.165913	-0.196995	0.691257	0.695239	0.850149	-0.232752	0.472307	0.488304	0.684098	-0.541820
30	616372337													0.501037	0.305474	-0.289887	-0.200469	0.688005	0.697468	0.849833	-0.232088	0.473201	0.487439	0.687593	-0.538162
31	616389004													0.299249	0.122150	-0.230620	-0.205804	0.683631	0.700209	0.848995	-0.231115	0.475178	0.486675	0.692267	-0.532835
32	616405671													0.045055	-0.222284	0.088951	-0.212095	0.679395	0.702451	0.847591	-0.229893	0.478266	0.486420	0.696829	-0.527090
33	616422338													-0.023596	-0.448534	0.110149	-0.217934	0.676196	0.703750	0.845756	-0.228990	0.481934	0.487033	0.700230	-0.521992
34	616439005													0.046993	-0.309787	-0.014962	-0.223761	0.673453	0.704551	0.843588	-0.228231	0.486076	0.488150	0.703115	-0.517048
35	616455672													0.206463	-0.317798	0.114788	-0.229965	0.670477	0.705391	0.841267	-0.227443	0.490448	0.489270	0.706208	-0.511747
36	616472339													0.154591	-0.393713	0.066087	-0.236676	0.667743	0.705765	0.838762	-0.226200	0.495290	0.490371	0.709192	-0.506541
37	616489006													-0.058549	-0.487748	0.000137	-0.244236	0.665888	0.704942	0.835880	-0.223954	0.501148	0.491582	0.711645	-0.501905
38	616505673													-0.193228	-0.436025	0.078650	-0.251649	0.665883	0.702334	0.832713	-0.220852	0.507754	0.493216	0.712618	-0.498912
39	616522340													0.013152	-0.015597	-0.116274	-0.258492	0.666647	0.699117	0.829319	-0.217991	0.514499	0.495390	0.712785	-0.496514
40	616539007													0.092844	0.217066	-0.231735	-0.265434	0.666719	0.696441	0.825778	-0.215625	0.521150	0.497631	0.713436	-0.493328
41	616555674													-0.030270	0.232385	-0.229549	-0.272859	0.665605	0.694635	0.822194	-0.213579	0.527618	0.499545	0.715090	-0.488979
42	616572341													-0.281864	0.025254	-0.167554	-0.280269	0.664204	0.693024	0.818596	-0.211689	0.533937	0.501349	0.716953	-0.484384
43	616589008													-0.231971	0.002292	-0.216314	-0.287234	0.663159	0.691170	0.814992	-0.209927	0.540111	0.503274	0.718436	-0.480171
44	616605675													0.102996	0.095575	-0.207661	-0.294357	0.662043	0.689241	0.811158	-0.208277	0.546483	0.505349	0.719944	-0.475713
45	616622342													0.421280	0.204617	-0.253367	-0.302566	0.660347	0.687311	0.806851	-0.206425	0.553516	0.507391	0.722033	-0.470344
46	616639009													0.779526	0.314442	-0.281896	-0.313441	0.657465	0.685196	0.801332	-0.204040	0.562348	0.509532	0.725332	-0.462893
47	616655676													0.756770	0.241904	-0.078899	-0.327570	0.653427	0.682444	0.794155	-0.200900	0.573548	0.511875	0.729844	-0.453114
48	616672343													0.649131	0.262651	0.060936	-0.344855	0.648592	0.678531	0.784939	-0.197136	0.587374	0.514729	0.735164	-0.441122
49	616689010													0.493273	0.104618	0.251652	-0.365419	0.642890	0.673172	0.773387	-0.192767	0.603915	0.518017	0.741305	-0.426762
50	616705677													0.464488	-0.108099	0.545211	-0.388162	0.637196	0.665816	0.759546	-0.187975	0.622700	0.521939	0.747426	-0.411015
51	616722344													0.454364	-0.373673	0.763889	-0.412090	0.632434	0.655903	0.743365	-0.182899	0.643395	0.526869	0.752711	-0.394759
52	616739011													0.156820	-0.444514	0.759418	-0.436546	0.629890	0.642391	0.724748	-0.176857	0.665929	0.533073	0.756281	-0.379305
53	616755678													-0.104739	-0.209594	0.815860	-0.461531	0.628532	0.626048	0.703620	-0.170438	0.689833	0.540285	0.758879	-0.363586
54	616772345													-0.303091	-0.105481	0.827060	-0.486513	0.627754	0.607644	0.680221	-0.164298	0.714357	0.548275	0.760876	-0.347078
55	616789012													-0.629923	0.016675	0.763819	-0.511790	0.626779	0.587553	0.654605	-0.158414	0.739187	0.556384	0.762924	-0.329218
56	616805679													-0.853003	-0.012256	0.708134	-0.536739	0.625639	0.566116	0.627105	-0.153085	0.763744	0.564491	0.764945	-0.310174
57	616822346													-0.871020	-0.248554	0.529305	-0.560884	0.624589	0.543412	0.597978	-0.148312	0.787671	0.572566	0.766741	-0.290305
58	616839013													-0.979059	-0.452806	0.426447	-0.583090	0.624401	0.519739	0.568001	-0.144072	0.810320	0.580844	0.767702	-0.270654
59	616855680													-1.029373	-0.490290	0.226067	-0.603450	0.624932	0.495286	0.537260	-0.140336	0.831660	0.589237	0.767962	-0.251065
60	616872347													-1.036092	-0.448706	0.098972	-0.622314	0.626132	0.469771	0.505596	-0.136633	0.851883	0.597578	0.767652	-0.231541
61	616889014													-0.922432	-0.197054	0.084837	-0.640667	0.626898	0.443335	0.473079	-0.132491	0.871001	0.604766	0.767753	-0.211690
62	616905681													-0.755007	0.107130	0.117234	-0.659079	0.626755	0.415684	0.439030	-0.128133	0.889289	0.610629	0.768609	-0.190715
63	616922348													-0.698428	0.220821	0.099290	-0.677785	0.625069	0.387165	0.403663	-0.123773	0.906497	0.614544	0.770694	-0.168426
64	616939015													-0.683791	-0.036204	0.150326	-0.695567	0.622858	0.358098	0.367718	-0.119566	0.922219	0.617227	0.773144	-0.145870
65	616955682													-0.705941	-0.320187	0.183372	-0.710584	0.622397	0.328166	0.331547	-0.115193	0.936380	0.620602	0.774179	-0.124500
66	616972349													-0.629124	-0.203640	0.176245	-0.723144	0.623158	0.297888	0.295610	-0.110558	0.948890	0.624242	0.774243	-0.104262
67	616989016													-0.603093	0.216480	0.021089	-0.733830	0.624801	0.266679	0.259149	-0.105407	0.960068	0.627962	0.773636	-0.084566
68	617005683													-0.389073	0.521771	-0.212480	-0.744127	0.625337	0.235006	0.222131	-0.100154	0.969859	0.630026	0.773901	-0.064380
69	617022350													-0.403177	0.622630	-0.337238	-0.754132	0.624561	0.202999	0.184710	-0.094912	0.978199	0.630212	0.775187	-0.043786
70	617039017													-0.404491	0.612613	-0.562751	-0.763851	0.622270	0.171208	0.147744	-0.089636	0.984955	0.628255	0.777654	-0.023468
71	617055684													-0.419751	0.272625	-0.397972	-0.772789	0.619093	0.139717	0.111484	-0.084304	0.990184	0.624794	0.780780	-0.003870
72	617072351													-0.259586	0.200971	-0.303723	-0.779595	0.616829	0.108414	0.076184	-0.078419	0.994005	0.621633	0.783181	0.014142
73	617089018													-0.161385	0.287293	-0.212359	-0.784446	0.615359	0.077320	0.042003	-0.071672	0.996543	0.618774	0.784982	0.030376
74	617105685													0.046385	0.758978	-0.381167	-0.789037	0.612601	0.046256	0.008116	-0.064893	0.997859	0.614292	0.787724	0.046231
75	617122352													0.124654	0.764638	-0.567715	-0.793761	0.608050	0.014809	-0.026008	-0.058257	0.997963	0.607674	0.791758	0.062056
76	617139019													-0.194696	0.706994	-0.593746	-0.798413	0.601873	-0.016900	-0.059884	-0.051449	0.996879	0.599125	0.796933	0.077120
77	617155686													-0.060559	0.227549	-0.555896	-0.802286	0.594913	-0.049149	-0.093828	-0.044365	0.994600	0.589520	0.802565	0.091412
78	617172353													-0.035269	-0.232766	-0.506199	-0.804455	0.588525	-0.080567	-0.126868	-0.037725	0.991202	0.580308	0.807598	0.105013
79	617189020													-0.174125	-0.339720	-0.727434	-0.804060	0.584082	-0.111066	-0.158985	-0.031220	0.986787	0.572898	0.811094	0.117963
80	617205687													-0.260895	-0.250632	-1.094048	-0.802932	0.579353	-0.140175	-0.189583	-0.025260	0.981540	0.565118	0.814685	0.130117
81	617222354													-0.375209	-0.505699	-1.042201	-0.800745	0.575104	-0.167517	-0.218282	-0.019726	0.975686	0.557817	0.817842	0.141330
82	617239021													-0.437035	-0.669044	-1.171056	-0.797073	0.572229	-0.192948	-0.245134	-0.014592	0.969379	0.551892	0.819964	0.151904
83	617255688													-0.352120	-0.733285	-1.310972	-0.792683	0.570150	-0.215832	-0.269598	-0.010308	0.962918	0.546782	0.821476	0.161882
84	617272355													-0.157567	-0.729622	-1.302227	-0.787363	0.569636	-0.235744	-0.291370	-0.006855	0.956586	0.543290	0.821869	0.171371
85	617289022													-0.268091	-0.292030	-1.431896	-0.782046	0.569637	-0.252820	-0.310059	-0.003725	0.950710	0.540618	0.821888	0.179534
86	617305689													-0.087571	-0.046931	-1.251976	-0.777322	0.569546	-0.267184	-0.325811	-0.001150	0.945434	0.538161	0.821958	0.186458
87	617322356													0.220662	0.012980	-1.312843	-0.773318	0.569441	-0.278777	-0.338515	0.000946	0.940961	0.536085	0.822032	0.192033
88	617339023													0.363100	0.046421	-1.424074	-0.769995	0.570016	-0.286687	-0.347643	0.001967	0.937625	0.535025	0.821631	0.196648
89	617355690													0.351064	0.075456	-1.696268	-0.767219	0.571719	-0.290710	-0.353149	0.001812	0.935565	0.535407	0.820448	0.200512
90	617372357													0.363189	0.134993	-1.935071	-0.765505	0.574110	-0.290516	-0.354710	0.000163	0.934976	0.536827	0.818778	0.203518
91	617389024													0.391488	0.151960	-2.079153	-0.765125	0.577149	-0.285453	-0.351542	-0.003019	0.936167	0.539446	0.816633	0.205202
92	617405691													0.461591	0.133747	-1.979608	-0.766110	0.580608	-0.275625	-0.343519	-0.007457	0.939116	0.543203	0.814149	0.205163
93	617422358													0.487296	0.072571	-1.834490	-0.767916	0.584726	-0.261534	-0.330965	-0.012623	0.943559	0.548422	0.811133	0.203217
94	617439025													0.448145	0.226266	-1.901663	-0.770200	0.589428	-0.243653	-0.314254	-0.018276	0.949163	0.555011	0.807614	0.199306
95	617455692													0.369686	0.256753	-1.959120	-0.773405	0.593724	-0.222120	-0.293358	-0.024603	0.955686	0.561949	0.804293	0.193201
96	617472359													0.330402	0.098562	-1.850808	-0.776890	0.598026	-0.196996	-0.268380	-0.031494	0.962798	0.569574	0.800858	0.184966
97	617489026													0.473524	-0.225362	-1.566072	-0.779591	0.603368	-0.167881	-0.238908	-0.038716	0.970270	0.578930	0.796522	0.174332
98	617505693													0.474978	-0.251844	-1.497597	-0.780866	0.609963	-0.134886	-0.205419	-0.046799	0.977554	0.589959	0.791047	0.161842
99	617522360													0.317482	0.000028	-1.584286	-0.781033	0.616656	-0.098605	-0.168436	-0.055970	0.984122	0.601346	0.785241	0.147582
100	617539027													0.428901	0.050194	-1.845250	-0.781048	0.621627	-0.059528	-0.128175	-0.066287	0.989534	0.611175	0.780503	0.131451
101	617555694													0.176029	-0.015326	-1.537797	-0.779470	0.626196	-0.017488	-0.084452	-0.077379	0.993419	0.620721	0.775817	0.113198
102	617572361													-0.031847	-0.172666	-1.327727	-0.776419	0.629629	0.027210	-0.037323	-0.089039	0.995329	0.629111	0.771777	0.092631
103	617589028													-0.170668	-0.343370	-0.858254	-0.769295	0.634630	0.073685	0.012491	-0.100370	0.994872	0.638771	0.766271	0.069287
104	617605695													-0.284549	-0.306279	-0.684218	-0.757220	0.641670	0.121972	0.065721	-0.110942	0.991651	0.649845	0.758914	0.041836
105	617622362													-0.537733	-0.061381	-0.509987	-0.741205	0.649001	0.171502	0.122164	-0.120805	0.985130	0.660069	0.751135	0.010257
106	617639029													-0.162488	0.289882	-0.240507	-0.722076	0.655765	0.220405	0.179388	-0.130216	0.975123	0.668151	0.743651	-0.023611
107	617655696													-0.027130	0.962759	-0.325576	-0.702850	0.658778	0.268354	0.236233	-0.139675	0.961605	0.670967	0.739258	-0.057454
108	617672363													-0.041691	0.658734	0.031128	-0.682398	0.659453	0.315364	0.292565	-0.148969	0.944571	0.669879	0.736838	-0.091277
109	617689030													-0.540478	-0.167480	0.658731	-0.657730	0.660587	0.361962	0.348425	-0.159222	0.923715	0.667826	0.733671	-0.125440
110	617705697													-0.887495	-0.040648	0.819104	-0.626219	0.665422	0.406279	0.403468	-0.169312	0.899193	0.667131	0.727012	-0.162450
111	617722364													-0.237434	0.835317	0.611773	-0.594058	0.667067	0.449575	0.456976	-0.180094	0.871056	0.662018	0.722902	-0.197847
112	617739031													-0.322834	0.642779	1.211669	-0.561316	0.666667	0.490387	0.508052	-0.190173	0.840070	0.653305	0.720687	-0.231954
113	617755698													-0.589466	0.758180	1.129483	-0.527403	0.666136	0.527361	0.555941	-0.198799	0.807099	0.642476	0.718848	-0.265485
114	617772365													-0.410130	0.963946	1.174238	-0.494144	0.662392	0.563080	0.601411	-0.207253	0.771590	0.627795	0.719919	-0.295957
115	617789032													-0.671140	0.968648	0.893447	-0.460180	0.656140	0.598092	0.645096	-0.215731	0.733015	0.609988	0.723146	-0.323999
116	617805699													-0.844328	1.112686	0.530474	-0.426469	0.646758	0.632319	0.686158	-0.224157	0.692056	0.589332	0.729011	-0.348182
117	617822366													-0.761516	1.001136	0.651153	-0.393707	0.633396	0.666186	0.724542	-0.232179	0.648946	0.565714	0.738175	-0.367512
118	617839033													-0.706980	0.914000	1.258204	-0.361029	0.618812	0.697660	0.759364	-0.239182	0.605110	0.541317	0.748241	-0.383552
119	617855700													-0.233204	0.191265	1.963734	-0.326422	0.603848	0.727198	0.791104	-0.246515	0.559808	0.517304	0.758023	-0.397239
120	617872367													-0.288034	-0.279118	1.855576	-0.288052	0.592080	0.752640	0.819372	-0.254400	0.513721	0.495636	0.764671	-0.411853
121	617889034													0.007805	-0.551485	1.613505	-0.247045	0.584282	0.773036	0.844052	-0.262103	0.467844	0.475968	0.768061	-0.428413
122	617905701													0.247086	-0.863199	1.381167	-0.204936	0.580273	0.788216	0.865183	-0.269159	0.423098	0.457668	0.768659	-0.446882
123	617922368													0.363979	-1.140578	1.154724	-0.163845	0.580214	0.797814	0.882511	-0.275190	0.381372	0.440828	0.766565	-0.466957
124	617939035													0.604447	-0.779044	0.772456	-0.125368	0.585486	0.800930	0.896434	-0.279042	0.344299	0.425075	0.761145	-0.489867
125	617955702													1.357870	-0.480203	0.670206	-0.092028	0.594233	0.799011	0.907070	-0.281008	0.313462	0.410797	0.753606	-0.513150
126	617972369													1.971569	-0.007924	0.048451	-0.065757	0.603975	0.794286	0.914656	-0.281691	0.289920	0.398848	0.745563	-0.533907
127	617989036													1.909447	0.135952	-0.587298	-0.047919	0.612096	0.789330	0.919840	-0.280995	0.273744	0.389356	0.739175	-0.549566
128	618005703													1.072916	-0.468178	-0.563084	-0.038648	0.617567	0.785568	0.923454	-0.278272	0.264192	0.381758	0.735647	-0.559540
129	618022370													-0.007783	-1.062905	-0.208428	-0.034754	0.622440	0.781895	0.926021	-0.274189	0.259433	0.375869	0.733068	-0.566864
130	618039037													-0.591937	-1.093743	-0.122788	-0.033123	0.628496	0.777107	0.927827	-0.269705	0.257676	0.371538	0.729556	-0.574202
131	618055704													-0.864052	-0.856255	0.038722	-0.032265	0.635267	0.771618	0.929082	-0.265546	0.257471	0.368463	0.725204	-0.581647
132	618072371													-1.072217	-0.738739	0.126415	-0.031048	0.643507	0.764810	0.930111	-0.261561	0.257835	0.365963	0.719364	-0.590412
133	618089038													-0.939559	-0.289066	-0.095797	-0.029028	0.653579	0.756302	0.930936	-0.257870	0.258576	0.364027	0.711575	-0.600954
134	618105705													-0.771421	0.238526	-0.527767	-0.027338	0.663597	0.747591	0.931525	-0.254404	0.259885	0.362648	0.703504	-0.611202
135	618122372													-0.510439	0.639278	-0.767976	-0.026857	0.672583	0.739534	0.931766	-0.251110	0.262214	0.362065	0.696115	-0.619946
136	618139039													-0.156318	1.269351	-0.833712	-0.028512	0.678250	0.734278	0.931564	-0.248332	0.265556	0.362458	0.691599	-0.624752
137	618155706													-0.166868	1.140677	-0.612320	-0.032926	0.679949	0.732520	0.930808	-0.246082	0.270260	0.364023	0.690734	-0.624799
138	618172373													-0.268509	0.699241	-0.520614	-0.040158	0.678876	0.733154	0.929454	-0.243935	0.276785	0.366745	0.692549	-0.621188
139	618189040													-0.162392	0.350432	-0.443022	-0.050012	0.676934	0.734343	0.927319	-0.241590	0.285857	0.370916	0.695266	-0.615651
140	618205707													-0.008588	-0.007507	-0.432951	-0.062859	0.673655	0.736368	0.924397	-0.238833	0.297402	0.376216	0.699391	-0.607713
141	618222374													0.322240	-0.080653	-0.422343	-0.079624	0.669943	0.738130	0.920276	-0.235164	0.312713	0.383082	0.704183	-0.597808
142	618239041													0.673289	0.121489	-0.375882	-0.101948	0.664564	0.740244	0.914297	-0.230631	0.332971	0.392004	0.710749	-0.584097
143	618255708													0.526917	0.255640	-0.180270	-0.131041	0.656541	0.742820	0.905893	-0.225078	0.358744	0.402723	0.719926	-0.565261
144	618272375													0.257108	0.397870	0.162008	-0.167808	0.645478	0.745116	0.894195	-0.218549	0.390706	0.415036	0.731843	-0.540510
145	618289042													-0.275942	0.050736	0.894703	-0.210048	0.633786	0.744443	0.878632	-0.211599	0.428056	0.428820	0.744003	-0.512419
146	618305709													-0.508399	0.133443	1.341202	-0.254807	0.622613	0.739883	0.858948	-0.205718	0.468923	0.444165	0.755005	-0.482373
147	618322376													-0.679393	0.120538	1.357881	-0.301299	0.611740	0.731432	0.835118	-0.200928	0.512060	0.460213	0.765115	-0.450336
148	618339043													-0.994123	-0.318921	1.468848	-0.348716	0.602435	0.717962	0.806877	-0.196748	0.556992	0.476809	0.773539	-0.417482
149	618355710													-1.457559	-0.640178	1.543859	-0.395459	0.596332	0.698570	0.774126	-0.192921	0.602918	0.494308	0.779211	-0.385344
150	618372377													-1.755380	-0.875726	1.577349	-0.440029	0.594186	0.673289	0.737195	-0.189100	0.648679	0.512755	0.781783	-0.354821
151	618389044													-1.958352	-0.517038	1.363095	-0.481931	0.595489	0.642756	0.696245	-0.185104	0.693527	0.531964	0.781748	-0.325399
152	618405711													-1.663122	0.076943	1.160688	-0.522147	0.597673	0.608399	0.651388	-0.180992	0.736842	0.550506	0.781043	-0.294813
153	618422378													-1.716248	0.297378	1.211039	-0.561601	0.599195	0.570587	0.602457	-0.176556	0.778379	0.567141	0.780892	-0.261835
154	618439045													-1.426598	-0.004177	1.352508	-0.599346	0.601193	0.528537	0.549353	-0.171333	0.817836	0.582233	0.780520	-0.227580
155	618455712													-1.057392	-0.157421	1.355518	-0.633927	0.603614	0.483515	0.493125	-0.166149	0.853945	0.595788	0.779772	-0.192331
156	618472379													-1.196337	0.054909	0.856930	-0.665430	0.606334	0.435387	0.433948	-0.160360	0.886552	0.607365	0.778873	-0.156409
157	618489046													-1.180041	0.200153	0.640841	-0.695220	0.607694	0.383898	0.371612	-0.153304	0.915643	0.615284	0.779234	-0.119246
158	618505713													-0.879769	-0.108835	0.717271	-0.721980	0.608318	0.329688	0.307450	-0.144812	0.940481	0.619855	0.780370	-0.082476
159	618522380													-0.771384	-0.325722	0.644393	-0.744489	0.609147	0.273269	0.242310	-0.134866	0.960779	0.622111	0.781506	-0.047196
160	618539047													-0.647422	-0.373623	0.400623	-0.761781	0.611352	0.214332	0.176433	-0.122557	0.976653	0.623346	0.781811	-0.014501
161	618555714													-0.132998	-0.134263	0.297892	-0.774380	0.613558	0.154542	0.111184	-0.108494	0.987860	0.622876	0.782161	0.015798
162	618572381													0.048197	0.400281	0.248055	-0.782632	0.615269	0.094502	0.046982	-0.092997	0.994557	0.620709	0.782813	0.043876
163	618589048													0.230269	0.784152	0.116958	-0.787070	0.615923	0.034051	-0.016460	-0.076151	0.996960	0.616643	0.784118	0.070074
164	618605715													0.678266	1.151123	-0.288218	-0.788240	0.614842	-0.025441	-0.078102	-0.058949	0.995201	0.610392	0.786444	0.094486
165	618622382													0.817831	1.408896	-0.877011	-0.787131	0.611132	-0.083321	-0.137239	-0.041833	0.989654	0.601324	0.790422	0.116799
166	618639049													0.890752	1.104993	-1.179852	-0.783751	0.605140	-0.139784	-0.194294	-0.025123	0.980622	0.589902	0.795723	0.137266
167	618655716													1.262469	1.013956	-1.695218	-0.778511	0.596950	-0.193833	-0.248497	-0.009573	0.968585	0.576341	0.802222	0.155793
168	618672383													1.172144	0.350821	-1.447719	-0.770901	0.587817	-0.245320	-0.299625	0.005213	0.954043	0.562082	0.808977	0.172107
169	618689050													1.035434	0.222445	-1.571985	-0.761303	0.578180	-0.293473	-0.347153	0.018812	0.937620	0.547633	0.815693	0.186395
170	618705717													1.002809	-0.046295	-1.585732	-0.749406	0.569387	-0.337920	-0.390884	0.031476	0.919902	0.534416	0.821467	0.198976
171	618722384													0.918523	0.201573	-1.744339	-0.735814	0.561942	-0.377888	-0.429722	0.043815	0.901898	0.523371	0.826016	0.209239
172	618739051													0.829746	0.121983	-1.621764	-0.721212	0.555714	-0.413564	-0.463708	0.056220	0.884202	0.514614	0.829470	0.217143
173	618755718													0.953808	-0.191852	-1.737325	-0.705798	0.551717	-0.444362	-0.492733	0.068351	0.867492	0.508983	0.831226	0.223608
174	618772385													0.860771	0.118376	-1.981509	-0.689900	0.550634	-0.469937	-0.516290	0.080776	0.852596	0.507428	0.830829	0.228560
175	618789052													0.462379	0.743274	-2.159130	-0.675050	0.550813	-0.490829	-0.535561	0.091720	0.839501	0.507427	0.829574	0.233079
176	618805719													0.312346	0.699619	-1.827650	-0.663650	0.548226	-0.508937	-0.551821	0.100546	0.827879	0.505037	0.830264	0.235795
177	618822386													0.736115	0.010279	-1.685086	-0.655661	0.543806	-0.523817	-0.564977	0.106892	0.818153	0.500908	0.832376	0.237153
178	618839053													0.940681	-0.539849	-1.867806	-0.650835	0.539895	-0.533786	-0.574237	0.109871	0.811283	0.496655	0.834531	0.238519
179	618855720													1.098332	-1.072316	-2.156143	-0.649046	0.538063	-0.537799	-0.578991	0.109178	0.807991	0.493465	0.835804	0.240672
180	618872387													1.191395	-1.502232	-2.435288	-0.650243	0.539948	-0.534453	-0.578103	0.104783	0.809208	0.492932	0.835151	0.244011
181	618889054													1.376655	-1.449551	-2.320466	-0.654645	0.545215	-0.523622	-0.571153	0.097021	0.815090	0.495201	0.832663	0.247887
182	618905721													1.381930	-0.930527	-2.031505	-0.661735	0.552520	-0.506782	-0.558775	0.087221	0.824720	0.499876	0.828923	0.251017
183	618922388													1.335432	-0.432077	-1.850371	-0.671154	0.559777	-0.486006	-0.541996	0.076747	0.836870	0.505760	0.825081	0.251888
184	618939055													1.481895	-0.477684	-1.738393	-0.682260	0.567207	-0.461300	-0.520956	0.065528	0.851064	0.512957	0.820965	0.250783
185	618955722													1.431431	-0.485511	-1.763683	-0.693605	0.577088	-0.431140	-0.495060	0.052902	0.867247	0.523286	0.814967	0.249000
186	618972389													1.170472	-0.114560	-1.670944	-0.704280	0.589828	-0.395085	-0.464261	0.038364	0.884867	0.537077	0.806617	0.246815
187	618989056													0.726571	0.525285	-1.962649	-0.714824	0.602877	-0.354354	-0.428892	0.022273	0.903081	0.552339	0.797523	0.242648
188	619005723													0.587562	0.492941	-1.754461	-0.725312	0.614690	-0.309966	-0.389433	0.004931	0.921042	0.567683	0.788754	0.235804
189	619022390													0.436185	0.694860	-1.970384	-0.735929	0.624016	-0.262701	-0.346328	-0.013550	0.938015	0.581778	0.781294	0.226086
190	619039057													0.502605	0.548830	-2.115014	-0.747381	0.629525	-0.212414	-0.299368	-0.033670	0.953544	0.593128	0.776250	0.213624
191	619055724													0.441620	0.291795	-1.709751	-0.756571	0.634369	-0.158671	-0.248742	-0.054784	0.967019	0.604754	0.771086	0.199243
192	619072391													0.155719	0.195644	-1.170121	-0.762478	0.638802	-0.102754	-0.194651	-0.075021	0.977999	0.617040	0.765705	0.181545
193	619089058													-0.397264	0.309046	-0.660890	-0.764596	0.642911	-0.045366	-0.136529	-0.092774	0.986282	0.629883	0.760302	0.158711
194	619105725													-0.354912	0.505162	-1.180791	-0.762419	0.646958	0.012755	-0.075540	-0.108565	0.991215	0.642659	0.754758	0.131643
195	619122392													0.392552	0.364613	-1.330566	-0.758890	0.647151	0.072672	-0.012512	-0.126063	0.991943	0.651098	0.751867	0.103765
196	619139059													-0.591724	0.092615	-0.647155	-0.750706	0.647062	0.133230	0.052811	-0.142246	0.988421	0.658522	0.749050	0.072613
197	619155726													-1.502390	-0.083841	0.067599	-0.738384	0.646440	0.192106	0.119511	-0.154922	0.980671	0.663706	0.747071	0.037135
198	619172393													-1.271590	-0.717964	0.650319	-0.717756	0.650289	0.248899	0.187151	-0.164135	0.968522	0.670672	0.741744	-0.003894
199	619189060													-0.536498	0.130652	0.557952	-0.691926	0.654635	0.304454	0.255348	-0.172545	0.951329	0.675305	0.735990	-0.047771
200	619205727													-0.009638	0.870002	0.811047	-0.664642	0.655223	0.359072	0.323016	-0.181365	0.928853	0.673729	0.733341	-0.091105
201	619222394													-0.981916	0.498116	1.209816	-0.633339	0.654685	0.412637	0.390054	-0.190472	0.900877	0.668386	0.731511	-0.134729
202	619239061													-1.936050	0.977257	0.699626	-0.599834	0.654440	0.460334	0.451903	-0.197683	0.869888	0.660290	0.729814	-0.177167
203	619255728													-1.046956	0.749148	1.982862	-0.568681	0.652396	0.500981	0.506867	-0.201747	0.838084	0.647833	0.730533	-0.215948
204	619272395													0.318547	1.358923	2.506616	-0.536488	0.652690	0.534955	0.555186	-0.204438	0.806209	0.635570	0.729521	-0.252686
205	619289062													0.083841	2.088198	1.557343	-0.507246	0.649098	0.566898	0.597851	-0.208742	0.773952	0.620706	0.731504	-0.282180
206	619305729													-0.176513	2.104343	0.849880	-0.482000	0.639654	0.598764	0.636145	-0.214438	0.741172	0.602492	0.738145	-0.303554
207	619322396													-0.288272	1.028893	1.142293	-0.457425	0.626300	0.631277	0.671460	-0.222165	0.706954	0.583013	0.747256	-0.318912
208	619339063													-0.669803	-0.236170	1.455996	-0.429687	0.612362	0.663613	0.705164	-0.231480	0.670194	0.564015	0.755930	-0.332352
209	619355730													-1.180795	-1.154374	1.277056	-0.396914	0.601808	0.693027	0.737673	-0.240135	0.631011	0.546167	0.761684	-0.348624
210	619372397													-1.026907	-1.498212	1.067168	-0.360292	0.597126	0.716680	0.768068	-0.246115	0.591185	0.529397	0.763458	-0.369960
211	619389064													-0.286815	-1.054530	0.893590	-0.322640	0.597333	0.734232	0.795372	-0.249422	0.552423	0.513115	0.762222	-0.394628
212	619405731													0.562357	-0.380935	0.770346	-0.286730	0.599788	0.747021	0.819131	-0.250874	0.515836	0.496801	0.759813	-0.419372
213	619422398													1.122368	-0.253499	0.698456	-0.253528	0.603680	0.755840	0.839135	-0.251462	0.482306	0.481223	0.756530	-0.442816
214	619439065													1.373576	-0.686957	0.717911	-0.222169	0.610277	0.760396	0.855923	-0.251423	0.451866	0.466945	0.751231	-0.466492
215	619455732													1.374394	-0.783104	0.392625	-0.192286	0.621199	0.759696	0.870120	-0.250047	0.424697	0.453782	0.742690	-0.492437
216	619472399													1.462206	-0.480782	0.003345	-0.165295	0.636300	0.753525	0.882241	-0.246107	0.401350	0.440826	0.731132	-0.520690
217	619489066													1.304926	-0.560854	-0.031996	-0.143145	0.653474	0.743290	0.892341	-0.239613	0.382509	0.428061	0.718023	-0.548823
218	619505733													0.710258	-0.930020	-0.075891	-0.125650	0.672448	0.729401	0.900501	-0.231218	0.368289	0.416305	0.703102	-0.576487
219	619522400													0.385109	-0.688648	-0.050094	-0.112551	0.691840	0.713225	0.906949	-0.221703	0.358177	0.405925	0.687172	-0.602511
220	619539067													0.141556	0.024087	-0.068916	-0.103194	0.710400	0.696192	0.912054	-0.211692	0.351203	0.396873	0.671207	-0.626078
221	619555734													-0.122281	0.891878	-0.294233	-0.098144	0.727130	0.679448	0.916012	-0.200843	0.347253	0.388961	0.656463	-0.646348
222	619572401													-0.334193	1.097499	-0.402021	-0.098004	0.738257	0.667362	0.918718	-0.190666	0.345838	0.382561	0.647010	-0.659564
223	619589068													-0.631270	0.739881	-0.457673	-0.101223	0.744063	0.660397	0.920047	-0.182542	0.346689	0.378508	0.642688	-0.666096
224	619605735													-0.897130	0.365382	-0.450680	-0.106516	0.745921	0.657462	0.920026	-0.176839	0.349687	0.377104	0.642129	-0.667430
225	619622402													-0.694914	-0.017216	-0.549230	-0.114472	0.745510	0.656590	0.918504	-0.172380	0.355860	0.378480	0.643817	-0.665021
226	619639069													-0.216831	-0.118809	-0.844370	-0.126964	0.741821	0.658469	0.915081	-0.168568	0.366350	0.382763	0.649066	-0.657424
227	619655736													0.293009	-0.358793	-0.892127	-0.146725	0.733886	0.663236	0.909116	-0.164203	0.382814	0.389847	0.659127	-0.643095
228	619672403													0.396355	-0.676262	-0.333773	-0.174756	0.721539	0.669957	0.899930	-0.159018	0.406005	0.399483	0.673866	-0.621545
229	619689070													0.415578	-0.464421	0.213319	-0.210367	0.705699	0.676561	0.886769	-0.153600	0.435944	0.411565	0.691662	-0.593480
230	619705737													0.264485	-0.389854	1.061543	-0.252346	0.687165	0.681268	0.868752	-0.149166	0.472249	0.426135	0.711023	-0.559335
231	619722404													-0.222536	-0.406958	1.571012	-0.298923	0.667957	0.681526	0.845364	-0.145979	0.513857	0.442723	0.729742	-0.521031
232	619739071													-1.158809	-0.961249	1.915376	-0.347703	0.651260	0.674510	0.816253	-0.143717	0.559533	0.461340	0.745121	-0.481622
233	619755738													-1.705181	-0.841476	2.200271	-0.396973	0.639050	0.658807	0.780753	-0.142245	0.608433	0.482532	0.755897	-0.442473
234	619772405													-1.940366	-0.332478	2.355867	-0.447299	0.630049	0.634793	0.737987	-0.140967	0.659927	0.505271	0.763653	-0.401914
235	619789072													-1.881857	0.329029	2.674107	-0.498096	0.623275	0.602850	0.687623	-0.139644	0.712513	0.528276	0.769433	-0.359022
236	619805739													-2.153779	0.688747	2.679873	-0.548865	0.617070	0.563890	0.629354	-0.138916	0.764602	0.550146	0.774549	-0.312110
237	619822406													-2.353628	0.420021	2.374392	-0.598030	0.611041	0.518642	0.563870	-0.139101	0.814064	0.569570	0.779282	-0.261361
238	619839073													-2.668333	-0.457123	2.233126	-0.643285	0.606680	0.467037	0.492210	-0.139539	0.859219	0.586441	0.782603	-0.208851
239	619855740													-3.077808	-0.970590	1.966023	-0.681754	0.606383	0.409282	0.415751	-0.139198	0.898763	0.601966	0.782894	-0.157205
240	619872407													-2.727672	-1.164713	1.594902	-0.712239	0.610328	0.346720	0.335857	-0.137425	0.931834	0.616373	0.780137	-0.107103
241	619889074													-2.705010	-0.761749	1.126722	-0.735171	0.616841	0.281123	0.253695	-0.134210	0.957928	0.628619	0.775561	-0.057823
242	619905741													-2.470250	-0.387906	0.900707	-0.752304	0.623694	0.212235	0.169452	-0.128126	0.977174	0.636651	0.771096	-0.009296
243	619922408													-1.594293	0.182477	0.827739	-0.763730	0.629968	0.140917	0.083832	-0.119658	0.989270	0.640070	0.767348	0.038575
244	619939075													-0.672299	0.627222	0.770624	-0.769293	0.635260	0.068071	-0.002038	-0.108983	0.994041	0.638893	0.764570	0.085134
245	619955742													0.112485	1.024298	0.446432	-0.769325	0.638835	-0.005384	-0.086789	-0.096160	0.991575	0.632935	0.763310	0.129423
246	619972409													0.847705	1.121920	0.472952	-0.764019	0.640406	-0.078458	-0.169046	-0.081338	0.982246	0.622655	0.763718	0.170402
247	619989076													1.221605	1.411085	0.256591	-0.751031	0.642936	-0.150286	-0.248219	-0.064012	0.966587	0.611833	0.763240	0.207664
248	620005743													2.215693	2.042695	-0.710193	-0.734505	0.641924	-0.220082	-0.323409	-0.046013	0.945140	0.596581	0.765387	0.241401
249	620022410													2.447835	2.320634	-1.088047	-0.715264	0.636259	-0.289087	-0.395107	-0.026963	0.918239	0.576444	0.771004	0.270676
250	620039077													3.114022	1.889035	-1.005117	-0.691440	0.627747	-0.357554	-0.464124	-0.006710	0.885745	0.553624	0.778389	0.295992
251	620055744													3.780386	1.178876	-1.557491	-0.663007	0.618144	-0.422279	-0.528256	0.013376	0.848980	0.530440	0.785951	0.317670
252	620072411													3.661233	0.608042	-2.162533	-0.630562	0.609632	-0.480354	-0.585503	0.032637	0.810013	0.509488	0.792012	0.336361
253	620089078													2.755505	1.156324	-3.339958	-0.596977	0.600679	-0.531792	-0.635148	0.051080	0.770699	0.490107	0.797857	0.351027
254	620105745													2.320487	0.175914	-3.903572	-0.565678	0.589476	-0.576651	-0.676687	0.067822	0.733141	0.471278	0.804934	0.360525
255	620122412													2.164618	-0.812176	-4.324105	-0.538362	0.579108	-0.612210	-0.709040	0.081346	0.700460	0.455443	0.811183	0.366817
256	620139079													2.284742	-2.203576	-4.225868	-0.516693	0.572783	-0.636355	-0.731557	0.090786	0.675709	0.444807	0.814664	0.372114
257	620155746													1.869562	-2.151546	-4.371269	-0.501543	0.572327	-0.648766	-0.745043	0.095426	0.660155	0.439733	0.814454	0.378548
258	620172413													1.551946	-2.022570	-4.064041	-0.494241	0.576450	-0.650716	-0.749943	0.095853	0.654521	0.439671	0.811491	0.384930
259	620189080													1.643080	-1.363820	-4.034789	-0.494991	0.583593	-0.643741	-0.747049	0.092516	0.658300	0.443735	0.806759	0.390178
260	620205747													1.805679	-0.741313	-3.851260	-0.503943	0.590959	-0.629927	-0.736534	0.086940	0.670790	0.451175	0.802003	0.391449
261	620222414													1.710980	0.344630	-3.784361	-0.520347	0.596894	-0.610701	-0.718770	0.080010	0.690629	0.461095	0.798320	0.387397
262	620239081													1.034427	1.249319	-3.411792	-0.542568	0.600493	-0.587391	-0.695014	0.071819	0.715400	0.471779	0.796398	0.378384
263	620255748													0.670484	1.599891	-2.937865	-0.569635	0.601033	-0.560603	-0.665926	0.062270	0.743415	0.481725	0.796795	0.364772
264	620272415													0.376324	1.390152	-2.811986	-0.600985	0.599304	-0.528820	-0.630814	0.050635	0.774280	0.490806	0.798918	0.347619
265	620289082													0.347555	0.992852	-2.624804	-0.634376	0.597234	-0.490793	-0.589633	0.036736	0.806835	0.499900	0.801225	0.328845
266	620305749													0.734465	0.188810	-2.561761	-0.667038	0.598087	-0.444244	-0.542206	0.019235	0.840026	0.510954	0.801200	0.311455
267	620322416													0.965004	-0.012637	-2.543695	-0.695581	0.604608	-0.388093	-0.489142	-0.002883	0.872199	0.526220	0.796518	0.297745
268	620339083													0.947854	0.350386	-2.713127	-0.719626	0.614006	-0.324245	-0.430856	-0.028659	0.901966	0.544520	0.788781	0.285172
269	620355750													-0.267320	0.883588	-1.935774	-0.740032	0.622544	-0.254543	-0.365268	-0.054224	0.929322	0.564741	0.780704	0.267523
270	620372417													-0.696989	0.268039	-0.752231	-0.758206	0.626002	-0.182334	-0.293877	-0.078474	0.952617	0.582031	0.775863	0.243467
271	620389084													-0.007990	0.038150	-0.276461	-0.769289	0.629512	-0.109129	-0.220209	-0.100913	0.970219	0.599752	0.770410	0.216255
272	620405751													0.070950	0.527998	-0.966460	-0.773949	0.632312	-0.034422	-0.142298	-0.120689	0.982439	0.617053	0.765255	0.183384
273	620422418													-0.441119	-0.302115	-0.133021	-0.771836	0.634419	0.042210	-0.059373	-0.138013	0.988649	0.633043	0.760569	0.144191
274	620439085													-0.453059	-1.193268	0.872632	-0.761075	0.637689	0.118819	0.026726	-0.152192	0.987989	0.648113	0.755110	0.098787
275	620455752													-0.610135	-0.367185	1.354680	-0.743380	0.640881	0.191464	0.112306	-0.162592	0.980281	0.659374	0.750223	0.048893
276	620472419													-0.024940	-0.107968	2.109807	-0.722135	0.641631	0.258519	0.194976	-0.169772	0.966003	0.663706	0.747989	-0.002504
277	620489086													0.020485	0.153856	1.953804	-0.694510	0.643153	0.322508	0.275862	-0.175956	0.944955	0.664497	0.745248	-0.055219
278	620505753													-0.678449	0.249424	1.524651	-0.663658	0.640945	0.385678	0.356100	-0.182715	0.916410	0.657838	0.745523	-0.106980
279	620522420													-1.371968	-0.982396	2.323206	-0.625739	0.639295	0.446936	0.435842	-0.188638	0.880033	0.646910	0.745465	-0.160593
280	620539087													-0.841726	0.225691	1.695076	-0.580378	0.642188	0.500756	0.509998	-0.192765	0.838298	0.634873	0.741914	-0.215638
281	620555754													0.311091	1.022920	2.524924	-0.534638	0.642147	0.549373	0.578412	-0.195895	0.791874	0.616119	0.741129	-0.266692
282	620572421													0.336977	1.116521	2.752433	-0.483099	0.642152	0.595193	0.643513	-0.200553	0.738694	0.593722	0.739878	-0.316347
283	620589088													-0.514199	1.022392	2.061758	-0.425497	0.642435	0.637361	0.702603	-0.209367	0.680085	0.570352	0.737186	-0.362292
284	620605755													-0.739481	0.514636	2.394166	-0.362946	0.643128	0.674282	0.755327	-0.220695	0.617069	0.545665	0.733266	-0.405672
285	620622422													-0.725186	-0.191530	2.365551	-0.295814	0.647538	0.702274	0.800851	-0.232630	0.551835	0.520703	0.725657	-0.449766
286	620639089													-0.037608	-0.128641	1.358356	-0.227724	0.659248	0.716613	0.837544	-0.242758	0.489479	0.496651	0.711660	-0.496867
287	620655756													1.644299	0.501222	0.869448	-0.164961	0.674863	0.719269	0.865537	-0.250604	0.433639	0.472899	0.694088	-0.542779
288	620672423													3.729304	1.249459	0.162217	-0.113304	0.688807	0.716036	0.885237	-0.257239	0.387535	0.451130	0.677770	-0.580611
289	620689090													4.467152	1.785421	-1.122961	-0.078835	0.692932	0.716680	0.897930	-0.262920	0.352981	0.433021	0.671355	-0.601477
290	620705757													3.062949	0.557099	-1.362773	-0.064294	0.684865	0.725828	0.905752	-0.265266	0.330527	0.418904	0.678671	-0.603263
291	620722424													0.592611	-1.395128	-0.513147	-0.065079	0.667871	0.741426	0.910753	-0.263879	0.317642	0.407790	0.695928	-0.591093
292	620739091													-1.175685	-2.819964	0.484167	-0.072715	0.652948	0.753904	0.913812	-0.259224	0.312650	0.399574	0.711662	-0.577822
293	620755758													-2.016684	-2.911107	0.990761	-0.080943	0.645857	0.759156	0.915363	-0.253224	0.313031	0.394410	0.720241	-0.570696
294	620772425													-2.382458	-2.423190	0.946041	-0.087012	0.646969	0.757535	0.915839	-0.247273	0.316377	0.392005	0.721309	-0.571004
295	620789092													-2.308602	-1.744947	0.608357	-0.090456	0.654797	0.750372	0.915395	-0.242105	0.321617	0.392263	0.715979	-0.577498
296	620805759													-1.673492	-0.921576	-0.163023	-0.092725	0.666353	0.739849	0.914046	-0.237711	0.328653	0.394869	0.706730	-0.587036
297	620822426													-1.060658	-0.101486	-0.845668	-0.095967	0.678121	0.728658	0.911820	-0.233706	0.337588	0.399217	0.696802	-0.595897
298	620839093													-0.151419	0.832170	-1.293229	-0.103434	0.687069	0.719192	0.908416	-0.229217	0.349628	0.405070	0.689489	-0.600436
299	620855760													0.510381	1.441457	-1.163938	-0.118412	0.689685	0.714362	0.903166	-0.224157	0.366122	0.412638	0.688540	-0.596357
300	620872427													0.245818	1.204144	-0.616588	-0.141075	0.686428	0.713383	0.895630	-0.218549	0.387407	0.421836	0.693580	-0.583953
301	620889094													-0.157928	0.865741	0.056664	-0.170452	0.679374	0.713721	0.885450	-0.212205	0.413458	0.432348	0.702439	-0.565381
302	620905761													-0.523277	0.511968	0.492370	-0.205180	0.670674	0.712809	0.872029	-0.205402	0.444271	0.444373	0.712746	-0.542703
303	620922428													-0.776165	0.064720	0.995340	-0.243601	0.661518	0.709262	0.855084	-0.198623	0.478937	0.457701	0.723148	-0.517269
304	620939095													-0.968041	-0.112587	1.219392	-0.283399	0.654411	0.701022	0.834691	-0.191614	0.516310	0.472204	0.731458	-0.491927
305	620955762													-1.071593	0.080451	1.193718	-0.324239	0.649720	0.687556	0.810486	-0.184018	0.556103	0.487833	0.737565	-0.466923
306	620972429													-1.073991	0.665738	1.132973	-0.367397	0.645310	0.669771	0.781721	-0.175920	0.598302	0.503917	0.743389	-0.439820
307	620989096													-1.084269	0.900783	1.445554	-0.412888	0.640102	0.647914	0.747895	-0.167704	0.642283	0.519785	0.749763	-0.409486
308	621005763													-1.228350	0.890204	1.482771	-0.459464	0.633883	0.622162	0.709211	-0.159870	0.686631	0.534709	0.756726	-0.376102
309	621022430													-1.393072	0.656376	1.390783	-0.506077	0.626815	0.592443	0.665633	-0.152963	0.730435	0.548469	0.764006	-0.339818
310	621039097													-1.485758	0.247786	1.272357	-0.551117	0.620186	0.558246	0.617695	-0.146570	0.772639	0.561002	0.770640	-0.302309
311	621055764													-1.511894	-0.113792	1.364013	-0.593396	0.614871	0.519438	0.565753	-0.140425	0.812530	0.572543	0.776025	-0.264537
312	621072431													-1.617270	0.027178	1.436431	-0.632700	0.610960	0.475834	0.509533	-0.134272	0.849910	0.583152	0.780192	-0.226350
313	621089098													-1.365247	0.371380	1.258824	-0.669038	0.607758	0.427806	0.448847	-0.128389	0.884337	0.592388	0.783675	-0.186893
314	621105765													-1.215631	0.055338	1.126691	-0.702264	0.603495	0.377649	0.385349	-0.123805	0.914428	0.598608	0.787696	-0.145613
315	621122432													-1.533944	-0.913016	0.961003	-0.730159	0.601139	0.324809	0.319868	-0.119338	0.939916	0.603782	0.790184	-0.105149
316	621139099													-1.633248	-1.065233	0.836944	-0.751680	0.602032	0.269322	0.252668	-0.114333	0.960774	0.609210	0.790244	-0.066172
317	621155766													-1.062092	-0.832484	1.124879	-0.767590	0.604655	0.212597	0.185238	-0.108260	0.976712	0.613590	0.789096	-0.028906
318	621172433													-0.896043	-0.257492	1.256543	-0.778131	0.608870	0.154237	0.117007	-0.100746	0.988008	0.617107	0.786847	0.007151
319	621189100													-0.241612	0.668880	1.112288	-0.786134	0.610889	0.093849	0.046645	-0.092770	0.994594	0.616293	0.786262	0.044434
320	621205767													0.670762	0.698793	0.765468	-0.792054	0.609625	0.031757	-0.024849	-0.084178	0.996141	0.609945	0.788208	0.081822
321	621222434													0.686777	0.005968	0.722991	-0.793402	0.607935	-0.030469	-0.095780	-0.075255	0.992554	0.601115	0.790413	0.117936
322	621239101													0.559520	0.266679	0.667047	-0.788875	0.607594	-0.092227	-0.164937	-0.064759	0.984176	0.592007	0.791603	0.151301
323	621255768													1.272380	0.301751	0.505772	-0.780387	0.605809	-0.154892	-0.233177	-0.052098	0.971038	0.580194	0.793902	0.181917
324	621272435													2.312081	0.585744	-0.279615	-0.767703	0.602875	-0.217196	-0.299866	-0.038441	0.953206	0.566315	0.796909	0.210293
325	621289102													2.292621	0.810308	-1.132019	-0.751789	0.597726	-0.278454	-0.364261	-0.024449	0.930976	0.549660	0.801328	0.236109
326	621305769													2.316557	0.250343	-1.218748	-0.732610	0.591027	-0.337595	-0.424798	-0.009488	0.905238	0.531817	0.806596	0.258018
327	621322436													2.342821	0.304075	-1.725764	-0.710069	0.583908	-0.393515	-0.480449	0.006782	0.876997	0.514754	0.811792	0.275722
328	621339103													2.295875	0.150819	-2.017590	-0.685559	0.575684	-0.445642	-0.530484	0.024208	0.847349	0.498594	0.817314	0.288796
329	621355770													2.156536	0.461992	-2.362399	-0.659911	0.566932	-0.493057	-0.574235	0.042632	0.817580	0.484532	0.822661	0.297419
330	621372437													2.128117	0.174487	-3.175756	-0.634355	0.558852	-0.534115	-0.610946	0.060900	0.789326	0.473644	0.827028	0.302797
331	621389104													1.519069	-0.064436	-3.598930	-0.611467	0.552269	-0.566664	-0.639686	0.076500	0.764820	0.465736	0.830149	0.306501
332	621405771													0.788979	-0.394568	-3.517540	-0.592787	0.546903	-0.591186	-0.661474	0.088110	0.744775	0.459409	0.832547	0.309531
333	621422438													0.551051	-0.963752	-3.184502	-0.578050	0.544410	-0.607845	-0.677033	0.095841	0.729685	0.455504	0.833326	0.313183
334	621439105													0.475650	-0.905943	-3.096873	-0.567921	0.545604	-0.616264	-0.686345	0.099345	0.720459	0.454309	0.832134	0.318052
335	621455772													0.368831	-0.796817	-2.900170	-0.562119	0.550996	-0.616787	-0.689862	0.098983	0.717142	0.456194	0.828617	0.324471
336	621472439													0.464086	-0.389842	-3.120479	-0.561797	0.558377	-0.610410	-0.687598	0.095106	0.719836	0.459994	0.824118	0.330508
337	621489106													0.709273	-0.025248	-3.029348	-0.567620	0.565791	-0.598070	-0.679142	0.088842	0.728610	0.465375	0.819748	0.333825
338	621505773													0.813840	0.642871	-2.720050	-0.578819	0.571153	-0.582025	-0.665292	0.081974	0.742070	0.471546	0.816740	0.332535
339	621522440													0.880512	1.010673	-2.287625	-0.593365	0.574463	-0.563836	-0.647433	0.075598	0.758364	0.478277	0.815032	0.327069
340	621539107													0.838115	1.096656	-2.069573	-0.610637	0.576245	-0.543199	-0.625997	0.068874	0.776778	0.485027	0.814370	0.318670
341	621555774													0.699526	0.652903	-1.861340	-0.629519	0.578772	-0.518390	-0.600741	0.060568	0.797146	0.492764	0.813237	0.309563
342	621572441													0.456277	0.195189	-1.975266	-0.649000	0.583892	-0.487719	-0.570891	0.049974	0.819504	0.502875	0.810292	0.300905
343	621589108													0.365085	-0.061594	-2.147061	-0.668748	0.591498	-0.450452	-0.535870	0.036515	0.843510	0.515383	0.805480	0.292547
344	621605775													0.612850	-0.754805	-1.998898	-0.686806	0.602520	-0.406531	-0.496130	0.020131	0.868015	0.531180	0.797850	0.285103
345	621622442													0.626627	-0.465735	-2.106587	-0.702771	0.615883	-0.356092	-0.451635	0.000504	0.892203	0.549672	0.787838	0.277800
346	621639109													0.778754	-0.247110	-2.465490	-0.717826	0.627840	-0.300903	-0.402860	-0.022074	0.914995	0.567829	0.778029	0.268777
347	621655776													0.864957	-0.136877	-2.468697	-0.731843	0.637434	-0.241007	-0.349183	-0.047057	0.935872	0.585216	0.769067	0.257019
348	621672443													0.268938	-0.444548	-1.579986	-0.743296	0.645253	-0.176519	-0.289459	-0.072335	0.954453	0.603096	0.760536	0.240541
349	621689110													-0.647065	0.239746	-1.302321	-0.749780	0.652688	-0.108756	-0.223453	-0.095053	0.970069	0.622815	0.751640	0.217114
350	621705777													-0.363120	-0.036120	-0.841673	-0.753335	0.656436	-0.039738	-0.151924	-0.114923	0.981688	0.639849	0.745577	0.186304
351	621722444													-0.217419	-0.694377	-0.096984	-0.748308	0.662658	0.030336	-0.076704	-0.131861	0.988296	0.658902	0.737223	0.149501
352	621739111													0.294808	-0.140783	-0.081630	-0.736734	0.668420	0.102165	0.001648	-0.149315	0.988788	0.676181	0.728642	0.108904
353	621755778													0.594551	0.946021	-0.275329	-0.720924	0.670900	0.173672	0.081210	-0.167093	0.982591	0.688239	0.722477	0.065978
354	621772445													-0.143863	1.318314	0.858081	-0.702773	0.668554	0.243200	0.159925	-0.184640	0.969707	0.693206	0.720377	0.022841
355	621789112													-1.481848	0.885449	1.870480	-0.678518	0.667934	0.305741	0.235544	-0.196407	0.951811	0.695796	0.717836	-0.024063
356	621805779													-0.513314	1.845616	1.556753	-0.653086	0.665628	0.361135	0.306560	-0.203680	0.929804	0.692459	0.717952	-0.071034
357	621822446													1.347279	3.204640	0.971376	-0.630350	0.655816	0.415409	0.375351	-0.210929	0.902564	0.679537	0.724855	-0.113202
358	621839113													1.098538	2.191461	1.238071	-0.604728	0.641964	0.471367	0.442911	-0.220812	0.868949	0.661917	0.734251	-0.150802
359	621855780													-0.357243	0.533353	2.290443	-0.571416	0.628170	0.528097	0.508433	-0.234146	0.828656	0.644189	0.742009	-0.185588
360	621872447													-1.509315	-1.144042	2.611780	-0.528385	0.620869	0.579078	0.572478	-0.243133	0.783042	0.626959	0.745257	-0.226966
361	621889114													-1.443372	-0.786106	2.182908	-0.480337	0.620079	0.620305	0.631190	-0.246679	0.735356	0.608995	0.744749	-0.272899
362	621905781													0.025431	1.201615	1.340075	-0.434443	0.621093	0.652306	0.682244	-0.245913	0.688528	0.588050	0.744158	-0.316902
363	621922448													1.025826	2.773712	0.863434	-0.395821	0.617730	0.679511	0.725473	-0.243330	0.643801	0.563041	0.747796	-0.351832
364	621939115													1.355449	2.037363	1.715645	-0.360845	0.610740	0.704831	0.762569	-0.241873	0.599989	0.536917	0.753986	-0.378453
365	621955782													0.520654	0.051100	2.640521	-0.322656	0.606008	0.727082	0.795106	-0.243220	0.555562	0.513516	0.757363	-0.403364
366	621972449													-0.239288	-1.723692	2.247278	-0.279606	0.609737	0.741648	0.822534	-0.246317	0.512608	0.495236	0.753359	-0.432657
367	621989116													-0.187020	-1.861899	1.306071	-0.237132	0.620679	0.747346	0.844427	-0.248667	0.474455	0.480325	0.743588	-0.465151
368	622005783													0.393474	-0.867224	0.130878	-0.202657	0.631501	0.748422	0.861344	-0.248631	0.443023	0.465850	0.734431	-0.493553
369	622022450													0.403088	-0.569360	-0.496563	-0.179204	0.636869	0.749856	0.873951	-0.246949	0.418600	0.451770	0.730352	-0.512338
370	622039117													-0.037454	-1.041233	-0.184185	-0.165113	0.637159	0.752839	0.883218	-0.244187	0.400373	0.438934	0.731028	-0.522432
371	622055784													-0.843904	-2.210602	0.662742	-0.155379	0.637083	0.754972	0.889993	-0.241373	0.386849	0.428685	0.732028	-0.529495
372	622072451													-1.524910	-3.032452	0.764138	-0.144971	0.642603	0.752359	0.894793	-0.239386	0.376880	0.422289	0.727843	-0.540293
373	622089118													-1.435077	-2.307661	-0.013703	-0.133549	0.654116	0.744511	0.897724	-0.238396	0.370484	0.419828	0.717844	-0.555378
374	622105785													-1.145972	-1.021304	-0.656570	-0.124080	0.666509	0.735099	0.898934	-0.238173	0.367684	0.420146	0.706427	-0.569595
375	622122452													-0.783393	-0.004019	-0.845334	-0.118993	0.676092	0.727145	0.898265	-0.238723	0.368959	0.423037	0.697073	-0.578904
376	622139119													-0.533729	0.719193	-1.019330	-0.120046	0.679900	0.723412	0.895677	-0.240117	0.374307	0.428195	0.692878	-0.580146
377	622155786													-0.419806	0.999024	-0.703014	-0.127145	0.678084	0.723903	0.891228	-0.242244	0.383445	0.435369	0.693916	-0.573527
378	622172453													-0.020156	1.280967	-0.569471	-0.140003	0.670875	0.728235	0.884567	-0.245730	0.396433	0.444906	0.699674	-0.559030
379	622189120													0.327879	1.308554	-0.732608	-0.159608	0.658662	0.735316	0.875255	-0.250078	0.413992	0.456567	0.709665	-0.536583
380	622205787													0.622483	1.645461	-1.049119	-0.188932	0.639913	0.744860	0.862547	-0.254422	0.437358	0.469380	0.725108	-0.503886
381	622222454													0.088299	0.882334	-0.434274	-0.228336	0.616324	0.753662	0.845536	-0.258212	0.467329	0.482631	0.743956	-0.462165
382	622239121													-0.243313	0.719977	0.089284	-0.275267	0.591470	0.757886	0.823353	-0.261939	0.503466	0.496305	0.762596	-0.414885
383	622255788													-0.575591	0.998860	0.435305	-0.329583	0.565131	0.756308	0.794917	-0.266105	0.545248	0.509393	0.780907	-0.361528
384	622272455													-0.775485	0.309664	1.321425	-0.390154	0.538962	0.746525	0.759392	-0.270135	0.591905	0.520677	0.797839	-0.303889
385	622289122													-1.012761	-0.451641	2.384158	-0.452815	0.517597	0.725984	0.716303	-0.273662	0.641887	0.530913	0.810680	-0.246838
386	622305789													-1.276703	-1.090105	3.065403	-0.513714	0.504197	0.694178	0.665930	-0.275828	0.693150	0.540958	0.818354	-0.194063
387	622322456													-1.435076	-1.160600	2.918911	-0.570165	0.499703	0.652080	0.608557	-0.276307	0.743850	0.551879	0.820945	-0.146557
388	622339123													-1.824908	-1.128562	2.830758	-0.621630	0.501949	0.601351	0.544620	-0.274820	0.792378	0.562997	0.820074	-0.102535
389	622355790													-2.006433	-0.902787	2.602928	-0.667764	0.509246	0.542919	0.474336	-0.270994	0.837596	0.573670	0.816842	-0.060593
390	622372457													-1.989832	-0.631404	2.362076	-0.708973	0.518378	0.478164	0.398626	-0.264758	0.878066	0.581768	0.813134	-0.018932
391	622389124													-1.799284	-0.281093	2.061297	-0.744600	0.528367	0.407920	0.318228	-0.256206	0.912737	0.586772	0.809436	0.022630
392	622405791													-1.644462	-0.414228	1.960422	-0.773751	0.538474	0.333698	0.234911	-0.245318	0.940551	0.588325	0.806142	0.063322
393	622422458													-1.209794	-0.379665	1.756865	-0.794814	0.550015	0.256424	0.149621	-0.231893	0.961165	0.588119	0.802314	0.102018
394	622439125													-0.958916	-0.069752	1.443570	-0.807888	0.561946	0.177574	0.063230	-0.216922	0.974139	0.585934	0.798224	0.139717
395	622455792													-0.513722	0.289842	1.001980	-0.813967	0.572560	0.098145	-0.022511	-0.199912	0.979555	0.580475	0.795116	0.175611
396	622472459													0.184755	0.452404	0.779615	-0.813037	0.581894	0.019225	-0.106040	-0.180468	0.977848	0.572473	0.792988	0.208432
397	622489126													0.447105	0.910704	0.570628	-0.805802	0.589271	-0.058675	-0.186777	-0.158877	0.969470	0.561959	0.792160	0.238085
398	622505793													1.462331	1.668005	-0.108091	-0.794193	0.592351	-0.135567	-0.263976	-0.135365	0.954983	0.547334	0.794227	0.263873
399	622522460													2.280019	1.875379	-0.644838	-0.778579	0.591264	-0.210291	-0.336736	-0.110852	0.935051	0.529551	0.798823	0.285407
400	622539127													2.674914	1.991318	-1.376779	-0.759382	0.586307	-0.282104	-0.404346	-0.085571	0.910594	0.509748	0.805557	0.302052
401	622555794													3.453102	1.924256	-2.339275	-0.736493	0.578227	-0.351044	-0.468209	-0.061202	0.881496	0.488220	0.813577	0.315806
402	622572461													3.342969	1.026076	-2.633653	-0.711542	0.566572	-0.415576	-0.526748	-0.038689	0.849141	0.465022	0.823103	0.325970
403	622589128													3.236867	0.361999	-3.028688	-0.684412	0.554116	-0.473853	-0.578597	-0.017334	0.815430	0.443629	0.832259	0.332473
404	622605795													2.966462	-0.168889	-3.113918	-0.656863	0.540707	-0.525516	-0.623280	0.002848	0.781993	0.424326	0.841206	0.335142
405	622622462													2.710346	-0.692359	-3.403600	-0.629603	0.528303	-0.569645	-0.660955	0.021137	0.750128	0.408336	0.848793	0.335877
406	622639129													2.282603	-0.951072	-3.934833	-0.605942	0.516596	-0.604949	-0.690430	0.036219	0.722492	0.395148	0.855463	0.334727
407	622655796													1.891780	-2.075395	-4.212081	-0.587286	0.508685	-0.629551	-0.711223	0.046934	0.701398	0.386338	0.859672	0.334225
408	622672463													1.572491	-2.535408	-4.127842	-0.575139	0.506848	-0.642122	-0.723041	0.052210	0.688829	0.382657	0.860453	0.336444
409	622689130													1.470355	-2.579825	-3.776519	-0.569585	0.512088	-0.642914	-0.726576	0.051992	0.685117	0.384267	0.857358	0.342457
410	622705797													1.353090	-1.661001	-3.632402	-0.571180	0.521593	-0.633794	-0.722667	0.046599	0.689624	0.389237	0.851921	0.350321
411	622722464													1.277039	-0.890411	-3.258500	-0.579506	0.533090	-0.616431	-0.711864	0.037133	0.701335	0.396765	0.845243	0.357969
412	622739131													1.223551	-0.121613	-2.951703	-0.593843	0.544503	-0.592340	-0.694500	0.024808	0.719065	0.406228	0.838392	0.363425
413	622755798													1.055783	0.229851	-2.765379	-0.612861	0.554980	-0.562492	-0.670865	0.010708	0.741503	0.417542	0.831794	0.365754
414	622772465													1.001150	0.265793	-2.819005	-0.634735	0.565450	-0.526667	-0.640927	-0.004520	0.767588	0.431652	0.824770	0.365281
415	622789132													0.921144	0.234121	-2.863042	-0.658349	0.576763	-0.483654	-0.604221	-0.021755	0.796520	0.448881	0.816622	0.362815
416	622805799													1.244576	-0.217937	-2.468040	-0.682364	0.589214	-0.432672	-0.560141	-0.041136	0.827375	0.469703	0.806929	0.358113
417	622822466													1.392903	-0.524162	-1.931830	-0.703285	0.604885	-0.373502	-0.509274	-0.062104	0.858361	0.496013	0.793887	0.351729
418	622839133													1.562450	-0.208714	-1.732966	-0.719869	0.622276	-0.307507	-0.452597	-0.084928	0.887662	0.526255	0.778177	0.342777
419	622855800													1.219528	0.509572	-1.915914	-0.732325	0.638260	-0.237327	-0.390769	-0.108476	0.914075	0.557673	0.762140	0.328852
420	622872467													0.647615	0.696562	-1.691527	-0.740725	0.651605	-0.163517	-0.322827	-0.131785	0.937238	0.589160	0.747023	0.307972
421	622889134													-0.045174	1.107984	-1.451037	-0.744923	0.661467	-0.086893	-0.247965	-0.153597	0.956515	0.619357	0.734077	0.278439
422	622905801													-0.278025	0.808459	-0.931935	-0.745166	0.666796	-0.010518	-0.168603	-0.173112	0.970364	0.645214	0.724856	0.241420
423	622922468													-0.354304	0.386920	-0.096380	-0.738231	0.671349	0.065612	-0.085922	-0.190064	0.978005	0.669053	0.716356	0.197995
424	622939135													-0.488472	0.669049	-0.188625	-0.724415	0.674773	0.141082	0.000288	-0.204358	0.978896	0.689364	0.709168	0.147846
425	622955802													-0.121701	1.214472	-0.147051	-0.705816	0.674555	0.216334	0.089260	-0.218265	0.971799	0.702749	0.705221	0.093844
426	622972469													-0.518286	1.310403	0.262640	-0.681438	0.671813	0.290361	0.178745	-0.231953	0.956163	0.709713	0.703466	0.037978
427	622989136													-0.579809	2.106155	0.635249	-0.652806	0.665249	0.362337	0.266103	-0.246450	0.931907	0.709249	0.704773	-0.016140
428	623005803													-0.488108	2.174190	1.237413	-0.620701	0.654209	0.432135	0.351131	-0.260853	0.899257	0.701025	0.709906	-0.067801
429	623022470													-1.077097	0.870990	2.453136	-0.580951	0.643601	0.498271	0.433755	-0.273200	0.858614	0.688732	0.714940	-0.120449
430	623039137													-1.198918	0.328622	2.393871	-0.533546	0.636708	0.556715	0.510757	-0.282094	0.812127	0.674134	0.717653	-0.174693
431	623055804													-0.721463	1.668581	2.486718	-0.484422	0.629846	0.607148	0.579916	-0.288431	0.761909	0.655006	0.721181	-0.225535
432	623072471													-0.362798	2.735786	2.438427	-0.436329	0.619329	0.652724	0.641490	-0.294572	0.708321	0.630958	0.727776	-0.268763
433	623089138													-1.167732	1.876719	2.411915	-0.388874	0.605070	0.694742	0.695967	-0.301175	0.651861	0.603661	0.737010	-0.303990
434	623105805													-1.808246	-0.107254	3.211456	-0.337244	0.592691	0.731426	0.744955	-0.307021	0.592268	0.575595	0.744618	-0.337987
435	623122472													-1.668550	-1.339569	3.333092	-0.278681	0.588395	0.759031	0.787980	-0.311725	0.530957	0.549022	0.746068	-0.376772
436	623139139													-1.055707	-0.924249	2.553829	-0.217346	0.592998	0.775315	0.823990	-0.314340	0.471413	0.523259	0.741312	-0.420304
437	623155806													0.381628	-0.114648	1.443849	-0.160803	0.602989	0.781375	0.852460	-0.314160	0.417870	0.497447	0.733286	-0.463506
438	623172473													1.703830	0.221096	0.582260	-0.113667	0.615638	0.779788	0.873595	-0.311888	0.373575	0.473193	0.723682	-0.502367
439	623189140													2.966175	1.279913	-0.454644	-0.077834	0.626496	0.775528	0.888202	-0.309734	0.339355	0.452812	0.715239	-0.532348
440	623205807													3.149794	1.498586	-1.102960	-0.056447	0.627497	0.776570	0.897377	-0.309057	0.314958	0.437640	0.714654	-0.545656
441	623222474													1.326191	-0.699283	-0.971035	-0.051594	0.617254	0.785070	0.902733	-0.307369	0.300993	0.427095	0.724239	-0.541357
442	623239141													-1.356125	-2.798350	-0.387115	-0.057086	0.603437	0.795365	0.905741	-0.303818	0.295512	0.419969	0.737264	-0.529214
443	623255808													-3.502742	-4.253708	0.422383	-0.065935	0.593197	0.802353	0.907092	-0.299389	0.295887	0.415735	0.747318	-0.518344
444	623272475													-3.399363	-3.048888	0.270471	-0.070512	0.592275	0.802645	0.907792	-0.295411	0.297734	0.413450	0.749629	-0.516832
445	623289142													-2.543184	-1.665223	0.415382	-0.070853	0.596737	0.799303	0.907753	-0.293588	0.299651	0.413478	0.746801	-0.520888
446	623305809													-1.316439	-0.904429	0.037678	-0.068474	0.605441	0.792939	0.906555	-0.294052	0.302806	0.416497	0.739577	-0.528731
447	623322476													-0.205081	-0.116053	-0.641514	-0.068865	0.612852	0.787191	0.903731	-0.295871	0.309405	0.422526	0.732716	-0.533478
448	623339143													0.592596	0.097626	-1.234274	-0.076881	0.615802	0.784141	0.898779	-0.297650	0.321871	0.431609	0.729515	-0.530586
449	623355810													1.344625	0.858354	-1.530791	-0.095525	0.611440	0.785504	0.891210	-0.298982	0.341109	0.443419	0.732633	-0.516361
450	623372477													1.517269	1.177950	-1.135090	-0.125718	0.598877	0.790912	0.880697	-0.299632	0.366870	0.456693	0.742676	-0.489760
451	623389144													1.325342	0.795903	-0.180153	-0.166233	0.581231	0.796579	0.866568	-0.299384	0.399287	0.470561	0.756664	-0.453908
452	623405811													1.019501	0.432798	0.671324	-0.214909	0.563057	0.797985	0.847404	-0.298684	0.438969	0.485510	0.770555	-0.412947
453	623422478													0.200921	-0.143499	1.547315	-0.268348	0.548177	0.792143	0.822605	-0.297527	0.484561	0.501309	0.781652	-0.371093
454	623439145													-0.350699	-0.273410	1.923615	-0.323473	0.539397	0.777442	0.791841	-0.295495	0.534482	0.518028	0.788501	-0.331532
455	623455812													-0.593807	0.559703	1.953759	-0.380814	0.534463	0.754540	0.754260	-0.292469	0.587838	0.534857	0.792976	-0.291747
456	623472479													-0.902111	0.446542	2.125345	-0.439342	0.531783	0.724006	0.709760	-0.288548	0.642636	0.550653	0.796208	-0.250667
457	623489146													-1.403225	-0.108733	2.410314	-0.495758	0.533198	0.685510	0.658419	-0.283958	0.697031	0.566311	0.796912	-0.210293
458	623505813													-1.916281	0.337760	2.130235	-0.548931	0.538478	0.639309	0.599871	-0.278845	0.749934	0.582091	0.795165	-0.169950
459	623522480													-1.916908	1.122022	2.408220	-0.600003	0.544673	0.585942	0.534143	-0.272504	0.800271	0.595557	0.793141	-0.127430
460	623539147													-1.952701	0.835863	2.910033	-0.647515	0.551086	0.526336	0.462145	-0.265205	0.846220	0.605927	0.791183	-0.082957
461	623555814													-2.009748	0.448875	2.510778	-0.689108	0.558691	0.461512	0.384515	-0.257911	0.886358	0.614229	0.788255	-0.037096
462	623572481													-2.425362	0.005551	1.896120	-0.724810	0.566571	0.391979	0.302107	-0.249957	0.919920	0.619178	0.785187	0.010006
463	623589148													-2.625225	-0.281677	1.576099	-0.753086	0.575980	0.317976	0.216317	-0.239666	0.946450	0.621344	0.781541	0.055895
464	623605815													-2.555669	-0.421382	1.377002	-0.774616	0.584830	0.240716	0.128607	-0.227002	0.965365	0.619218	0.778745	0.100626
465	623622482													-1.934517	-0.757602	1.177045	-0.788783	0.593332	0.160560	0.040028	-0.211075	0.976650	0.613368	0.776791	0.142742
466	623639149													-1.076567	-1.239197	1.243735	-0.794232	0.602478	0.078845	-0.048071	-0.191658	0.980284	0.605711	0.774782	0.181182
467	623655816													-0.190430	-0.785780	0.681378	-0.790253	0.612777	-0.001985	-0.133035	-0.168400	0.976700	0.598165	0.772104	0.214599
468	623672483													0.657023	-0.352392	0.402258	-0.779079	0.621714	-0.080670	-0.214081	-0.142885	0.966309	0.589241	0.770101	0.244416
469	623689150													1.034342	0.664597	-0.144792	-0.761939	0.628355	-0.156902	-0.290937	-0.115638	0.949728	0.578623	0.769284	0.270921
470	623705817													2.177188	1.516754	-1.067821	-0.741570	0.629666	-0.231506	-0.363884	-0.087612	0.927315	0.563616	0.771910	0.294096
471	623722484													3.291181	1.269838	-1.746054	-0.719019	0.625540	-0.302840	-0.432332	-0.061409	0.899621	0.544152	0.777772	0.314595
472	623739151													3.151005	1.070358	-2.068830	-0.693574	0.618817	-0.368809	-0.495534	-0.038228	0.867747	0.522878	0.784604	0.333159
473	623755818													3.343568	0.267396	-2.235687	-0.665068	0.611649	-0.428451	-0.552807	-0.017495	0.833126	0.502084	0.790936	0.349759
474	623772485													3.235253	-0.055577	-2.797711	-0.634539	0.605746	-0.480033	-0.603098	0.000360	0.797667	0.483357	0.795658	0.365096
475	623789152													2.957911	0.122945	-3.383734	-0.603931	0.601646	-0.522770	-0.645776	0.015070	0.763378	0.467161	0.798621	0.379428
476	623805819													2.654470	-0.149881	-3.479743	-0.575804	0.597698	-0.557859	-0.680756	0.027388	0.731998	0.452792	0.801254	0.391116
477	623822486													2.456115	-0.680371	-3.730814	-0.551865	0.594805	-0.584510	-0.707986	0.036216	0.705298	0.440683	0.803054	0.401127
478	623839153													2.011536	-1.008526	-3.570785	-0.532614	0.595001	-0.601910	-0.727230	0.042080	0.685103	0.432966	0.802622	0.410290
479	623855820													1.623002	-1.074239	-3.402249	-0.518779	0.598291	-0.610668	-0.739217	0.044894	0.671969	0.429448	0.800020	0.418977
480	623872487													1.632419	-1.110122	-3.475066	-0.511242	0.603786	-0.611616	-0.744330	0.044711	0.666314	0.429657	0.795892	0.426558
481	623889154													1.714088	-0.855900	-3.595290	-0.511331	0.610543	-0.604796	-0.742179	0.041070	0.668943	0.433257	0.790917	0.432132
482	623905821													1.609542	-0.070703	-3.620239	-0.518653	0.618131	-0.590688	-0.732869	0.034406	0.679499	0.440343	0.785322	0.435164
483	623922488													1.409542	0.429696	-3.351550	-0.532609	0.624203	-0.571576	-0.717341	0.025474	0.696256	0.449166	0.780847	0.434198
484	623939155													1.175428	0.864719	-2.995745	-0.551359	0.628371	-0.548774	-0.696609	0.015197	0.717290	0.459064	0.777765	0.429350
485	623955822													0.951207	1.289465	-2.660142	-0.573708	0.630456	-0.522862	-0.671274	0.003853	0.741199	0.469308	0.776216	0.420998
486	623972489													0.726582	1.263547	-2.384499	-0.599366	0.630302	-0.493436	-0.641287	-0.009168	0.767246	0.479073	0.776296	0.409700
487	623989156													0.506443	0.962333	-2.334917	-0.627025	0.629610	-0.458728	-0.606035	-0.024268	0.795067	0.489450	0.776532	0.396782
488	624005823													0.348920	0.753114	-2.340148	-0.655007	0.629980	-0.417244	-0.564823	-0.041401	0.824173	0.501938	0.775507	0.382945
489	624022490													0.153290	0.251121	-2.174659	-0.681647	0.631512	-0.369526	-0.518341	-0.060338	0.853043	0.516411	0.773014	0.368468
490	624039157													0.198046	-0.137877	-2.209400	-0.706344	0.633153	-0.316536	-0.467070	-0.080860	0.880515	0.531906	0.769791	0.352842
491	624055824													0.344277	-0.411617	-1.887563	-0.728667	0.634330	-0.258203	-0.410851	-0.103232	0.905839	0.547947	0.766138	0.335837
492	624072491													-0.022216	-0.887051	-1.125621	-0.746011	0.636951	-0.194322	-0.349442	-0.126024	0.928444	0.566884	0.760533	0.316593
493	624089158													-0.491495	-0.618786	-0.773516	-0.756906	0.641482	-0.124878	-0.282636	-0.149026	0.947580	0.589245	0.752524	0.294104
494	624105825													-0.514734	0.124374	-0.811037	-0.761809	0.645640	-0.052874	-0.211474	-0.170712	0.962360	0.612312	0.744316	0.266586
495	624122492													-0.279702	0.169842	-0.266775	-0.761250	0.648168	0.019411	-0.137599	-0.190712	0.971954	0.633692	0.737229	0.234367
496	624139159													-1.377253	1.003747	-0.711940	-0.756015	0.648411	0.089465	-0.062146	-0.207170	0.976329	0.651597	0.732560	0.196919
497	624155826													-1.875627	1.332968	-1.268534	-0.749726	0.642944	0.156634	0.014971	-0.220158	0.975349	0.661579	0.733590	0.155432
498	624172493													-0.395298	0.875400	-0.601963	-0.741076	0.632609	0.224972	0.095463	-0.232388	0.967927	0.664600	0.738784	0.111826
499	624189160													-0.337303	0.091911	1.269699	-0.726511	0.620271	0.295713	0.178646	-0.245053	0.952909	0.663527	0.745126	0.067224
500	624205827													-1.308036	-0.408618	2.190025	-0.702588	0.612615	0.362041	0.259840	-0.252776	0.931980	0.662460	0.748871	0.018416
501	624222494													-0.801434	1.011450	1.743097	-0.675274	0.606483	0.419743	0.333913	-0.256052	0.907160	0.657653	0.752739	-0.029607
502	624239161													0.302878	2.601729	1.292710	-0.647965	0.596131	0.474098	0.404151	-0.258500	0.877405	0.645603	0.760135	-0.073428
503	624255828													0.532259	2.118189	1.492922	-0.617840	0.582258	0.528440	0.471493	-0.263491	0.841586	0.629260	0.769121	-0.111735
504	624272495													-0.065557	0.085307	3.210871	-0.578949	0.569202	0.583804	0.538124	-0.271183	0.798049	0.612569	0.776189	-0.149300
505	624289162													-0.485514	-1.730545	3.113527	-0.529383	0.565267	0.632635	0.600767	-0.276747	0.749993	0.599026	0.777100	-0.193089
506	624305829													-0.694468	-0.837727	2.798130	-0.475774	0.568946	0.670775	0.655947	-0.278557	0.701526	0.585980	0.773761	-0.240668
507	624322496													0.538693	1.097434	1.719961	-0.427512	0.574922	0.697638	0.702853	-0.273947	0.656468	0.568533	0.770985	-0.286970
508	624339163													1.017797	1.246702	1.779132	-0.388343	0.577832	0.717844	0.741883	-0.266035	0.615495	0.546624	0.771580	-0.325371
509	624355830													0.664065	-0.398496	2.591912	-0.351175	0.581928	0.733509	0.776144	-0.257264	0.575687	0.523714	0.771476	-0.361315
510	624372497													-0.585181	-2.591498	2.645428	-0.307028	0.596099	0.741890	0.807784	-0.248952	0.534329	0.503208	0.763341	-0.405084
511	624389164													-0.636444	-2.739831	1.630256	-0.255200	0.625863	0.737000	0.835475	-0.240930	0.493898	0.486678	0.741788	-0.461407
512	624405831													1.247986	-0.346397	0.088048	-0.204698	0.663414	0.719709	0.857119	-0.233598	0.459106	0.472701	0.710854	-0.520808
513	624422498													2.840640	2.027014	-1.626714	-0.168278	0.691568	0.702436	0.872733	-0.226767	0.432334	0.458278	0.685792	-0.565395
514	624439165													1.809200	1.582640	-1.952795	-0.150570	0.703580	0.694481	0.883807	-0.218963	0.413449	0.442960	0.676040	-0.588860
515	624455832													-0.348220	-0.053115	-0.786786	-0.144380	0.706395	0.692936	0.892140	-0.210011	0.399976	0.428065	0.675945	-0.599882
516	624472499													-1.050381	-1.316739	0.205808	-0.141758	0.707449	0.692402	0.898040	-0.202354	0.390611	0.416447	0.677177	-0.606632
517	624489166													-0.604584	-1.450774	0.514142	-0.137510	0.711374	0.689230	0.902131	-0.197354	0.383681	0.408963	0.674536	-0.614614
518	624505833													0.316506	-0.719263	-0.342124	-0.134651	0.713556	0.687537	0.904338	-0.195115	0.379610	0.405021	0.672881	-0.619023
519	624522500													-0.262450	-1.071690	-0.894146	-0.137190	0.712729	0.687892	0.904383	-0.193161	0.380501	0.404068	0.674319	-0.618080
520	624539167													-0.523979	-1.006992	-0.917239	-0.146543	0.709993	0.688793	0.902028	-0.189907	0.387661	0.406043	0.678119	-0.612604
521	624555834													0.005185	-0.731613	-0.812503	-0.163088	0.705609	0.689578	0.896890	-0.185190	0.401613	0.411085	0.683974	-0.602651
522	624572501													1.009708	-0.428534	-0.809122	-0.188386	0.698015	0.690859	0.887955	-0.179477	0.423466	0.419579	0.693227	-0.585995
523	624589168													1.078833	-0.656912	-0.224287	-0.221773	0.688499	0.690497	0.874579	-0.172693	0.453089	0.431195	0.704377	-0.563848
524	624605835													0.779197	-0.100716	0.519432	-0.261629	0.678612	0.686320	0.855965	-0.165418	0.489858	0.445953	0.715627	-0.537590
525	624622502													0.397297	0.738752	1.350850	-0.308048	0.666027	0.679349	0.831353	-0.158732	0.532593	0.462556	0.728843	-0.504806
526	624639169													-0.671514	0.860858	2.055871	-0.360069	0.651090	0.668155	0.800621	-0.151998	0.579571	0.478911	0.743625	-0.466547
527	624655836													-1.373173	0.796715	2.707364	-0.415461	0.635342	0.650948	0.763544	-0.145347	0.629186	0.494361	0.758430	-0.424725
528	624672503													-2.072864	0.339710	3.014721	-0.471105	0.620945	0.626489	0.720245	-0.139230	0.679605	0.509223	0.771390	-0.381640
529	624689170													-2.347818	0.011682	2.853836	-0.524030	0.610448	0.593924	0.670687	-0.134040	0.729529	0.524949	0.780632	-0.339178
530	624705837													-2.471957	0.126003	2.480125	-0.573011	0.603539	0.554436	0.615404	-0.129906	0.777433	0.541236	0.786680	-0.296982
531	624722504													-2.800685	-0.128611	1.940888	-0.618284	0.599428	0.508341	0.554435	-0.125781	0.822667	0.557070	0.790484	-0.254575
532	624739171													-2.834280	-0.431574	1.577247	-0.657571	0.599285	0.456571	0.489152	-0.121308	0.863722	0.573001	0.791291	-0.213373
533	624755838													-3.032386	-0.849584	1.350249	-0.688877	0.603502	0.401539	0.422108	-0.116358	0.899047	0.589299	0.788826	-0.174587
534	624772505													-3.250305	-1.272609	1.745705	-0.711493	0.612460	0.344486	0.354420	-0.110535	0.928530	0.606766	0.782735	-0.138423
535	624789172													-2.635012	-0.715841	1.420565	-0.725204	0.626543	0.285522	0.285268	-0.104006	0.952788	0.626659	0.772416	-0.103307
536	624805839													-2.012544	0.333987	1.135755	-0.734398	0.639801	0.226527	0.215006	-0.097264	0.971757	0.643764	0.762361	-0.066130
537	624822506													-0.882376	1.621667	0.448850	-0.742651	0.648775	0.166015	0.142729	-0.088865	0.985764	0.654292	0.755774	-0.026603
538	624839173													-0.100638	1.656725	0.448483	-0.752110	0.650954	0.102905	0.068000	-0.078659	0.994580	0.655520	0.755031	0.014896
539	624855840													0.501471	1.322663	0.700541	-0.759715	0.649149	0.037930	-0.007432	-0.066996	0.997726	0.650214	0.757705	0.055722
540	624872507													0.551907	0.699356	0.784025	-0.761974	0.647004	-0.027959	-0.082736	-0.054438	0.995084	0.642301	0.760541	0.095011
541	624889174													1.009363	0.489936	0.816061	-0.757469	0.646151	-0.093433	-0.156064	-0.040242	0.986927	0.633944	0.762148	0.131323
542	624905841													1.231403	1.118626	0.611360	-0.747349	0.645415	-0.157828	-0.226705	-0.024413	0.973658	0.624560	0.763442	0.164564
543	624922508													1.581296	1.425899	0.313846	-0.732328	0.643770	-0.221936	-0.296044	-0.007487	0.955145	0.613232	0.765183	0.196067
544	624939175													2.029819	2.200084	-0.864319	-0.716315	0.636463	-0.286022	-0.363647	0.009333	0.931490	0.595528	0.771251	0.224763
545	624955842													2.253746	1.496382	-1.219871	-0.699580	0.622862	-0.350186	-0.428477	0.026524	0.903163	0.571834	0.781882	0.248326
546	624972509													2.061839	0.615174	-1.491449	-0.679344	0.607541	-0.411565	-0.488680	0.043849	0.871360	0.547434	0.793077	0.267105
547	624989176													2.193556	0.396483	-1.674338	-0.655797	0.590819	-0.469960	-0.544509	0.061016	0.836532	0.522914	0.804494	0.281693
548	625005843													2.244838	-0.419952	-1.642198	-0.629442	0.573315	-0.524512	-0.595588	0.077579	0.799535	0.499077	0.815654	0.292628
549	625022510													2.119491	-0.630760	-1.843246	-0.600427	0.557046	-0.573748	-0.641559	0.092753	0.761445	0.477377	0.825286	0.301686
550	625039177													1.615329	-0.224403	-1.985580	-0.570483	0.540985	-0.617968	-0.682327	0.106615	0.723231	0.457142	0.834247	0.308307
551	625055844													1.271269	-0.214911	-2.379438	-0.541491	0.524171	-0.657292	-0.717620	0.119107	0.686174	0.437961	0.843243	0.311660
552	625072511													1.173026	-0.554424	-2.973222	-0.514681	0.509040	-0.689914	-0.746569	0.129593	0.652564	0.421589	0.850931	0.313335
553	625089178													1.240734	-1.135164	-3.354250	-0.492036	0.497948	-0.714107	-0.768087	0.137827	0.625337	0.409808	0.856185	0.314651
554	625105845													1.492025	-1.495805	-3.682872	-0.474164	0.493632	-0.729037	-0.782430	0.143418	0.605999	0.403698	0.857764	0.318229
555	625122512													1.806040	-1.604355	-4.156478	-0.462834	0.496295	-0.734490	-0.789675	0.145608	0.595996	0.402737	0.855856	0.324519
556	625139179													1.823520	-1.212716	-4.546775	-0.459145	0.505084	-0.730805	-0.789940	0.144231	0.595980	0.406425	0.850934	0.332763
557	625155846													1.731737	-0.561335	-4.793985	-0.464058	0.517278	-0.719079	-0.783217	0.139602	0.605874	0.413790	0.844355	0.340357
558	625172513													1.729636	-0.140499	-4.687171	-0.477614	0.529726	-0.700910	-0.769793	0.132188	0.624456	0.423442	0.837805	0.344644
559	625189180													1.888158	0.189819	-4.317162	-0.498828	0.540911	-0.677189	-0.749731	0.122697	0.650269	0.434827	0.832082	0.344333
560	625205847													1.863346	0.218533	-3.769409	-0.526110	0.550559	-0.648146	-0.722994	0.111717	0.681762	0.447759	0.827287	0.339275
561	625222514													1.770687	0.316420	-3.282968	-0.556989	0.560100	-0.613231	-0.689984	0.098902	0.717036	0.462261	0.822500	0.331372
562	625239181													1.585526	0.443805	-3.049285	-0.590530	0.569247	-0.572042	-0.650623	0.083548	0.754791	0.477456	0.817910	0.321027
563	625255848													1.277450	0.374754	-2.883210	-0.624389	0.579592	-0.523651	-0.604681	0.065723	0.793752	0.494469	0.812252	0.309431
564	625272515													1.266153	0.330105	-2.730082	-0.657073	0.591160	-0.467746	-0.551913	0.045383	0.832666	0.513466	0.805277	0.296448
565	625289182													0.978781	-0.247177	-1.865501	-0.687878	0.602503	-0.404740	-0.491544	0.023597	0.870533	0.534050	0.797768	0.279924
566	625305849													1.515845	-0.983234	-0.968951	-0.713774	0.615372	-0.334431	-0.425156	-0.001244	0.905119	0.556569	0.788236	0.262517
567	625322516													1.431277	-0.788242	-0.369608	-0.730474	0.632953	-0.256472	-0.353619	-0.029268	0.934932	0.584261	0.773637	0.245204
568	625339183													0.727391	0.352356	-0.222385	-0.737348	0.652932	-0.173198	-0.276044	-0.057230	0.959440	0.616537	0.755251	0.222437
569	625355850													-0.896855	0.785627	0.075511	-0.737101	0.669908	-0.088910	-0.191509	-0.080898	0.978151	0.648079	0.738023	0.187923
570	625372517													-1.563250	2.134052	-0.625170	-0.733573	0.679571	-0.007367	-0.103267	-0.100745	0.989538	0.671719	0.726660	0.144081
571	625389184													-0.055038	2.283165	-0.800039	-0.730462	0.679363	0.069942	-0.014210	-0.117508	0.992970	0.682806	0.724333	0.095489
572	625405851													0.500486	1.373632	-0.260598	-0.726802	0.670945	0.146942	0.075786	-0.134292	0.988040	0.682654	0.729245	0.046755
573	625422518													-0.243125	0.342888	0.931565	-0.715546	0.661048	0.225853	0.166306	-0.152814	0.974161	0.678481	0.734618	-0.000591
574	625439185													-1.149466	-0.105171	1.650402	-0.693973	0.653289	0.302681	0.255339	-0.169760	0.951832	0.673204	0.737831	-0.049001
575	625455852													-1.079920	0.075049	2.245020	-0.663687	0.648228	0.373257	0.341100	-0.181822	0.922275	0.665711	0.739420	-0.100437
576	625472519													0.120079	0.351511	2.592835	-0.625628	0.646254	0.436973	0.422535	-0.190150	0.886176	0.655785	0.739052	-0.154102
577	625489186													1.120656	1.298087	2.849204	-0.582224	0.644536	0.495569	0.499001	-0.197938	0.843693	0.641883	0.738508	-0.206380
578	625505853													0.650404	1.761295	2.603291	-0.535446	0.640401	0.550622	0.569982	-0.207092	0.795131	0.623232	0.739594	-0.254131
579	625522520													-0.452745	1.085852	2.588993	-0.485500	0.633532	0.602434	0.635724	-0.217191	0.740731	0.600120	0.742607	-0.297306
580	625539187													-1.252377	-0.388864	2.977962	-0.430635	0.627336	0.648848	0.696477	-0.226237	0.680982	0.573998	0.745162	-0.339500
581	625555854													-1.465838	-0.799891	2.677022	-0.371287	0.625816	0.685931	0.750383	-0.232863	0.618628	0.546875	0.744399	-0.383142
582	625572521													-0.500420	0.113706	2.244592	-0.312882	0.627958	0.712582	0.795971	-0.235974	0.557447	0.518204	0.741610	-0.426004
583	625589188													0.379831	0.581271	2.005453	-0.258072	0.631916	0.730809	0.833072	-0.237528	0.499571	0.489274	0.737742	-0.465132
584	625605855													0.713600	0.718064	1.467334	-0.207817	0.636234	0.742979	0.862292	-0.239440	0.446229	0.461805	0.733400	-0.498860
585	625622522													1.052773	0.426205	0.799885	-0.162997	0.640295	0.750636	0.884676	-0.241964	0.398500	0.436785	0.729024	-0.527014
586	625639189													0.961624	-0.071817	0.307983	-0.124361	0.643488	0.755287	0.901512	-0.244708	0.356922	0.414500	0.725288	-0.549680
587	625655856													0.661203	-0.897327	-0.221315	-0.093517	0.646130	0.757476	0.913953	-0.246054	0.322720	0.394899	0.722477	-0.567522
588	625672523													0.261696	-1.627019	-0.474421	-0.071917	0.648535	0.757780	0.923085	-0.244510	0.296866	0.377812	0.720845	-0.581068
589	625689190													-0.212502	-1.851966	-0.534750	-0.058754	0.651459	0.756406	0.929883	-0.239911	0.278854	0.363132	0.719753	-0.591685
590	625705857													-0.942196	-1.777918	-0.255557	-0.051722	0.655182	0.753699	0.934897	-0.233590	0.267215	0.351131	0.718451	-0.600445
591	625722524													-1.597323	-1.738891	0.034301	-0.047980	0.660907	0.748932	0.938626	-0.226580	0.260082	0.341583	0.715446	-0.609474
592	625739191													-1.869345	-1.718784	0.062852	-0.045126	0.670954	0.740125	0.941423	-0.219289	0.256194	0.334196	0.708331	-0.621756
593	625755858													-1.908882	-1.117660	0.033218	-0.040685	0.686375	0.726109	0.943978	-0.211784	0.253088	0.327491	0.695728	-0.639306
594	625772525													-1.439999	0.323271	-0.053455	-0.033768	0.705699	0.707706	0.946936	-0.203881	0.248484	0.319643	0.678544	-0.661368
595	625789192													-1.132699	1.573063	0.265357	-0.025668	0.723332	0.690024	0.949653	-0.197959	0.242840	0.312251	0.661516	-0.681833
596	625805859													-1.349731	1.640173	-0.340537	-0.018222	0.735982	0.676755	0.951384	-0.195387	0.238103	0.307469	0.648193	-0.696641
597	625822526													-1.406189	1.486689	-1.002758	-0.014106	0.743171	0.668952	0.951889	-0.194838	0.236528	0.306118	0.640105	-0.704668
598	625839193													-1.189667	1.170268	-1.000371	-0.014705	0.744725	0.667209	0.951535	-0.194580	0.238158	0.307188	0.638375	-0.705771
599	625855860													-0.818082	0.575260	-0.717916	-0.019625	0.742176	0.669918	0.950565	-0.193841	0.242595	0.309906	0.641561	-0.701682
600	625872527													-0.519801	-0.059394	-0.514092	-0.028217	0.737601	0.674647	0.948711	-0.192843	0.250518	0.314883	0.647114	-0.694328
601	625889194													0.314457	-0.135285	-0.599908	-0.042252	0.731389	0.680650	0.945396	-0.191094	0.264026	0.323174	0.654639	-0.683378
602	625905861													0.751346	-0.108931	-0.729097	-0.062744	0.722245	0.688785	0.940328	-0.188483	0.283296	0.334434	0.665459	-0.667321
603	625922528													1.082655	-0.148740	-0.643055	-0.091208	0.709978	0.698292	0.932841	-0.184520	0.309452	0.348553	0.679620	-0.645467
604	625939195													0.766656	-0.557656	0.044418	-0.127704	0.696367	0.706232	0.921993	-0.179087	0.343303	0.365542	0.694982	-0.619176
605	625955862													0.558792	-0.245049	0.334467	-0.172095	0.682218	0.710606	0.906541	-0.172577	0.385229	0.385444	0.710490	-0.588759
606	625972529													0.154662	0.280964	0.976824	-0.225280	0.666319	0.710822	0.884924	-0.165304	0.435412	0.407626	0.727113	-0.552402
607	625989196													-0.599942	0.446836	1.692022	-0.284502	0.649472	0.705156	0.856746	-0.157802	0.491004	0.430168	0.743831	-0.511537
608	626005863													-1.312748	0.066610	2.294097	-0.346673	0.634060	0.691221	0.821680	-0.150133	0.549821	0.452394	0.758570	-0.468947
609	626022530													-1.805138	-0.132791	2.738776	-0.408022	0.622934	0.667437	0.779458	-0.142954	0.609926	0.475356	0.769102	-0.427222
610	626039197													-1.990203	-0.264682	2.955755	-0.466112	0.616566	0.634496	0.730111	-0.136978	0.669459	0.499678	0.775295	-0.386315
611	626055864													-2.088095	-0.409593	2.822105	-0.519179	0.614709	0.593789	0.674569	-0.131881	0.726336	0.524795	0.777650	-0.346194
612	626072531													-2.243146	-0.439368	2.334446	-0.567417	0.616442	0.545927	0.613125	-0.126261	0.779831	0.549650	0.777211	-0.306313
613	626089198													-2.240859	-0.079249	2.122479	-0.613151	0.619828	0.489753	0.544485	-0.117586	0.830488	0.572348	0.775878	-0.265389
614	626105865													-1.514098	0.410161	2.534082	-0.656483	0.622061	0.426696	0.468526	-0.107073	0.876937	0.591196	0.775613	-0.221160
615	626122532													-1.096352	0.562739	2.228703	-0.696501	0.621676	0.358337	0.386171	-0.096145	0.917403	0.604780	0.777351	-0.173109
616	626139199													-1.385174	0.514328	1.547231	-0.733119	0.617298	0.285445	0.298261	-0.085372	0.950659	0.611209	0.782083	-0.121528
617	626155866													-1.361141	0.274133	1.036073	-0.764333	0.610378	0.207926	0.207232	-0.072830	0.975577	0.610614	0.788755	-0.070824
618	626172533													-0.956838	-0.436848	0.743105	-0.786832	0.603703	0.128210	0.116496	-0.058724	0.991454	0.606072	0.795044	-0.024123
619	626189200													-0.593648	-0.900696	0.557056	-0.798551	0.599954	0.048704	0.028264	-0.043451	0.998656	0.601263	0.798854	0.017741
620	626205867													0.003773	-0.255153	0.192849	-0.800161	0.599103	-0.028595	-0.055861	-0.026970	0.998074	0.597178	0.800217	0.055047
621	626222534													1.139052	0.750008	-0.249006	-0.795385	0.597222	-0.103380	-0.136137	-0.009826	0.990641	0.590617	0.802016	0.089120
622	626239201													2.407084	1.667924	-1.073283	-0.786838	0.591394	-0.176463	-0.212921	0.008246	0.977035	0.579267	0.806341	0.119432
623	626255868													3.497349	1.768383	-2.001362	-0.775849	0.580244	-0.247739	-0.287066	0.025009	0.957584	0.561829	0.814058	0.147166
624	626272535													2.944616	0.900274	-2.006036	-0.763018	0.564277	-0.315269	-0.356006	0.040232	0.933617	0.539503	0.824605	0.170188
625	626289202													3.172496	-0.028206	-2.368434	-0.746553	0.548286	-0.376884	-0.417985	0.054211	0.906835	0.517636	0.834532	0.188704
626	626305869													3.042919	-0.172566	-2.691221	-0.727276	0.534180	-0.430954	-0.471480	0.067465	0.879292	0.498775	0.842675	0.202789
627	626322536													2.808650	0.066116	-3.241225	-0.707478	0.522006	-0.476428	-0.515819	0.079435	0.853007	0.483120	0.849235	0.213062
628	626339203													2.135981	-0.105032	-3.453421	-0.689297	0.510975	-0.513590	-0.551743	0.089184	0.829232	0.469521	0.854957	0.220452
629	626355870													1.609620	-0.752825	-3.380886	-0.673945	0.503290	-0.540829	-0.578549	0.095707	0.810013	0.459433	0.858801	0.226677
630	626372537													1.328997	-1.418842	-3.277238	-0.661492	0.501822	-0.557318	-0.596379	0.098589	0.796625	0.454710	0.859334	0.234060
631	626389204													1.381319	-1.337311	-3.253457	-0.652569	0.507246	-0.562899	-0.605239	0.098022	0.789985	0.455894	0.856208	0.243039
632	626405871													1.449029	-0.791477	-3.257154	-0.648614	0.516490	-0.559052	-0.605617	0.094674	0.790105	0.461008	0.851044	0.251388
633	626422538													1.424327	-0.235972	-3.179797	-0.650584	0.526108	-0.547678	-0.598237	0.089207	0.796338	0.467816	0.845726	0.256701
634	626439205													1.382211	0.102707	-3.026475	-0.658251	0.534068	-0.530544	-0.584000	0.082436	0.807557	0.475026	0.841413	0.257632
635	626455872													1.189489	0.253379	-3.003272	-0.669900	0.541347	-0.508112	-0.563678	0.074583	0.822621	0.483220	0.837485	0.255182
636	626472539													0.985733	0.252714	-3.114774	-0.684755	0.548395	-0.479972	-0.537409	0.064876	0.840823	0.492242	0.833699	0.250288
637	626489206													0.683675	0.039067	-3.177314	-0.702115	0.556242	-0.444555	-0.504197	0.052494	0.861992	0.502812	0.829361	0.243599
638	626505873													0.586506	-0.097901	-3.344249	-0.720079	0.566091	-0.401281	-0.463984	0.037191	0.885062	0.515950	0.823503	0.235877
639	626522540													0.612940	-0.097267	-3.176654	-0.737716	0.577370	-0.349883	-0.416051	0.019336	0.909136	0.531673	0.816253	0.225951
640	626539207													0.285365	-0.118036	-2.804296	-0.753242	0.589628	-0.291488	-0.360617	0.000413	0.932714	0.550074	0.807675	0.212319
641	626555874													0.312591	-0.403500	-2.102946	-0.765462	0.601805	-0.227815	-0.299337	-0.019621	0.953946	0.569619	0.798402	0.195162
642	626572541													0.569528	-0.698185	-1.268996	-0.771635	0.615638	-0.159901	-0.234158	-0.041207	0.971325	0.591396	0.786951	0.175954
643	626589208													0.408350	-0.075987	-0.918355	-0.771300	0.630261	-0.088702	-0.165239	-0.063702	0.984194	0.614648	0.773766	0.153277
644	626605875													-0.462393	1.247845	-1.042600	-0.765957	0.642663	-0.017142	-0.091610	-0.082715	0.992354	0.636331	0.761671	0.122230
645	626622542													-1.080961	1.216622	-0.958101	-0.758255	0.649815	0.052815	-0.014324	-0.097594	0.995123	0.651801	0.753801	0.083309
646	626639209													-0.869316	1.109500	-0.057321	-0.748613	0.651928	0.120697	0.063894	-0.110258	0.991847	0.659921	0.750222	0.040886
647	626655876													0.156989	1.576378	0.277025	-0.737151	0.649594	0.186106	0.141160	-0.121304	0.982527	0.660819	0.750541	-0.002278
648	626672543													0.655423	1.432925	0.782751	-0.724550	0.642452	0.249564	0.216592	-0.131507	0.967364	0.654305	0.754958	-0.043866
649	626689210													0.761309	0.632504	1.627214	-0.706990	0.635201	0.310941	0.289450	-0.141267	0.946711	0.645278	0.759317	-0.083985
650	626705877													0.354432	0.126774	2.336072	-0.680505	0.631423	0.371776	0.361254	-0.152318	0.919943	0.637501	0.760331	-0.124451
651	626722544													-0.802438	0.018346	2.415901	-0.643709	0.632886	0.430225	0.431824	-0.163738	0.886971	0.631796	0.756733	-0.167896
652	626739211													-1.499339	0.085486	2.281884	-0.601073	0.636143	0.483770	0.498837	-0.174297	0.848989	0.624398	0.751627	-0.212567
653	626755878													-1.138943	0.711832	1.743032	-0.556687	0.639493	0.530234	0.559846	-0.182756	0.808191	0.613736	0.746759	-0.256280
654	626772545													-0.382392	1.954126	1.389801	-0.516672	0.637333	0.571714	0.613814	-0.189795	0.766297	0.596895	0.746850	-0.293142
655	626789212													0.253548	1.787052	1.788691	-0.481934	0.628664	0.610345	0.661280	-0.196035	0.724071	0.574847	0.752564	-0.321247
656	626805879													0.290947	0.670192	2.219599	-0.446605	0.618319	0.646704	0.704060	-0.203163	0.680459	0.552127	0.759214	-0.344600
657	626822546													-0.132612	-0.883345	2.492882	-0.406313	0.610828	0.679558	0.743308	-0.211578	0.634609	0.531416	0.762971	-0.368066
658	626839213													-0.580819	-2.151018	2.345056	-0.359708	0.610167	0.705908	0.778803	-0.220329	0.587299	0.513883	0.761020	-0.395946
659	626855880													-0.256353	-2.433627	1.633290	-0.309517	0.618250	0.722473	0.809660	-0.227078	0.541189	0.498648	0.752465	-0.430288
660	626872547													0.485115	-1.770525	1.082851	-0.259806	0.633529	0.728795	0.835566	-0.230845	0.498538	0.484077	0.738479	-0.469380
661	626889214													1.655650	0.217650	0.197689	-0.214496	0.651353	0.727826	0.856272	-0.233085	0.460945	0.469883	0.722087	-0.507740
662	626905881													2.638926	1.469359	-0.540744	-0.179205	0.663435	0.726457	0.871634	-0.235355	0.429955	0.456223	0.710255	-0.536096
663	626922548													2.265888	1.043817	-0.892784	-0.155240	0.667077	0.728635	0.882481	-0.237851	0.405775	0.443990	0.705999	-0.551759
664	626939215													1.183664	-0.419155	-0.568638	-0.141253	0.664677	0.733656	0.889880	-0.239471	0.388287	0.433775	0.707713	-0.557657
665	626955882													-0.041741	-1.775152	-0.288590	-0.134097	0.661150	0.738172	0.894931	-0.239106	0.376732	0.425578	0.711132	-0.559620
666	626972549													-0.864434	-2.193752	0.020144	-0.130379	0.660515	0.739406	0.898498	-0.236581	0.369772	0.419169	0.712565	-0.562626
667	626989216													-0.833131	-1.465487	0.215775	-0.128491	0.663464	0.737093	0.900647	-0.233051	0.366773	0.415121	0.710987	-0.567602
668	627005883													-0.788537	-0.729886	0.164840	-0.128742	0.667770	0.733150	0.901290	-0.229585	0.367378	0.413645	0.708078	-0.572297
669	627022550													-1.035143	-0.084924	0.055079	-0.131600	0.672488	0.728314	0.900420	-0.226218	0.371576	0.414638	0.704688	-0.575752
670	627039217													-1.042000	0.556100	-0.173630	-0.137948	0.676360	0.723538	0.898001	-0.222754	0.379440	0.417809	0.702081	-0.576644
671	627055884													-1.020496	0.687374	-0.458763	-0.148872	0.678174	0.719665	0.893790	-0.219076	0.391337	0.423056	0.701488	-0.573531
672	627072551													-0.913652	0.709368	-0.662140	-0.165445	0.677234	0.716926	0.887233	-0.215213	0.408045	0.430634	0.703589	-0.565258
673	627089218													-0.865987	0.352100	-0.648162	-0.188771	0.673090	0.715063	0.877783	-0.210822	0.430175	0.440298	0.708875	-0.551030
674	627105885													-0.970680	0.192659	-0.444248	-0.218745	0.666588	0.712609	0.864989	-0.205524	0.457771	0.451603	0.716534	-0.531633
675	627122552													-0.858664	0.183198	-0.183299	-0.255292	0.658603	0.707862	0.848001	-0.199173	0.491146	0.464457	0.725653	-0.507649
676	627139219													-0.833124	0.534991	0.318238	-0.298762	0.648512	0.700124	0.825652	-0.192256	0.530411	0.478581	0.736526	-0.478007
677	627155886													-1.102092	0.888091	0.873249	-0.349268	0.636697	0.687481	0.796787	-0.184287	0.575473	0.493096	0.748769	-0.442946
678	627172553													-1.685254	0.495366	1.855581	-0.403881	0.624905	0.668112	0.760848	-0.176040	0.624596	0.507928	0.760594	-0.404358
679	627189220													-2.118340	0.359562	2.119459	-0.459008	0.616042	0.640159	0.717602	-0.167735	0.675953	0.523793	0.769647	-0.365081
680	627205887													-2.273674	0.679881	2.315868	-0.514560	0.608847	0.603766	0.666086	-0.159587	0.728602	0.539960	0.777070	-0.323428
681	627222554													-2.515515	0.853682	2.694092	-0.569703	0.602759	0.558678	0.605644	-0.151603	0.781161	0.555549	0.783389	-0.278688
682	627239221													-2.375975	1.047150	2.808007	-0.623556	0.596672	0.505135	0.536461	-0.143430	0.831647	0.568672	0.789564	-0.230654
683	627255888													-2.256270	0.368253	3.001717	-0.672907	0.591879	0.443706	0.459708	-0.135329	0.877698	0.579538	0.794585	-0.181028
684	627272555													-2.252810	-0.277003	3.019110	-0.715358	0.589283	0.375512	0.376567	-0.127572	0.917564	0.588609	0.797791	-0.130644
685	627289222													-2.100401	-0.567310	2.898168	-0.749991	0.588728	0.301517	0.288134	-0.119534	0.950100	0.595392	0.799444	-0.079983
686	627305889													-1.900490	-0.538943	2.757225	-0.776671	0.589384	0.222281	0.194962	-0.110629	0.974552	0.598976	0.800242	-0.028986
687	627322556													-1.449820	-0.402271	2.015501	-0.795246	0.590009	0.139546	0.099572	-0.099940	0.989999	0.598055	0.801187	0.020729
688	627339223													-0.645033	-0.985531	1.815236	-0.805706	0.589726	0.055333	0.004711	-0.087035	0.996194	0.592297	0.802900	0.067347
689	627355890													0.025337	-1.066638	1.635250	-0.806780	0.590157	-0.028667	-0.088144	-0.072239	0.993485	0.584241	0.804050	0.110300
690	627372557													0.980713	-0.825709	1.034135	-0.798845	0.591063	-0.111765	-0.178572	-0.055592	0.982355	0.574420	0.804708	0.149956
691	627389224													1.614504	-0.355183	0.219334	-0.783214	0.591324	-0.192122	-0.264586	-0.037359	0.963638	0.562645	0.805568	0.185716
692	627405891													1.995625	0.157721	-0.528699	-0.761709	0.589952	-0.267874	-0.344051	-0.017955	0.938779	0.549025	0.807238	0.216650
693	627422558													2.473533	0.177300	-0.932887	-0.736088	0.586025	-0.338746	-0.416653	0.002130	0.909063	0.533455	0.810290	0.242601
694	627439225													2.374499	0.168157	-1.183444	-0.707594	0.579966	-0.403671	-0.481915	0.021718	0.875949	0.516787	0.814351	0.264127
695	627455892													2.707472	0.160089	-1.748909	-0.676559	0.573198	-0.462290	-0.540083	0.040509	0.840636	0.500578	0.818415	0.282168
696	627472559													2.477158	0.030635	-1.933270	-0.644411	0.565150	-0.515112	-0.591719	0.058149	0.804045	0.484359	0.822937	0.296938
697	627489226													2.261519	0.347382	-2.425612	-0.610968	0.557210	-0.562348	-0.637746	0.074437	0.766641	0.469039	0.827029	0.309880
698	627505893													1.566607	0.012942	-1.858660	-0.578170	0.548211	-0.604305	-0.678171	0.088916	0.729505	0.453655	0.831600	0.320372
699	627522560													0.977263	-0.455394	-1.326754	-0.544824	0.540697	-0.640947	-0.714263	0.101207	0.692521	0.439313	0.835107	0.331060
700	627539227													1.047489	-0.273715	-1.435437	-0.510852	0.535153	-0.672786	-0.746747	0.111494	0.655697	0.425910	0.837365	0.342667
701	627555894													1.846038	0.053845	-2.256503	-0.478078	0.530288	-0.700169	-0.775256	0.119906	0.620162	0.412818	0.839296	0.353785
702	627572561													2.176716	0.824823	-3.019487	-0.447632	0.526781	-0.722584	-0.799185	0.126835	0.587551	0.401159	0.840485	0.364220
703	627589228													2.653078	0.981395	-3.361326	-0.421117	0.522661	-0.741273	-0.818836	0.132415	0.558545	0.390086	0.842195	0.372211
704	627605895													2.423400	1.207491	-3.837998	-0.398677	0.518840	-0.756215	-0.834713	0.136273	0.533558	0.379883	0.843940	0.378754
705	627622562													2.153705	1.202043	-4.237261	-0.382280	0.514404	-0.767627	-0.846611	0.137913	0.514032	0.370286	0.846386	0.382779
706	627639229													1.965272	0.890047	-4.365349	-0.372810	0.509996	-0.775188	-0.854266	0.137521	0.501316	0.362274	0.849113	0.384402
707	627655896													1.727362	0.464547	-4.056474	-0.370013	0.506632	-0.778726	-0.857834	0.135485	0.495747	0.356667	0.851450	0.384475
708	627672563													1.411215	0.071702	-3.836504	-0.373854	0.504064	-0.778558	-0.857380	0.132333	0.497380	0.353740	0.853468	0.382701
709	627689230													1.032882	-0.752783	-3.307117	-0.383136	0.503887	-0.774147	-0.852894	0.128802	0.505946	0.354651	0.854112	0.380414
710	627705897													0.720077	-0.697928	-3.038038	-0.397948	0.506201	-0.765113	-0.844138	0.124556	0.521456	0.359261	0.853374	0.377737
711	627722564													0.817156	-0.715903	-2.813477	-0.418222	0.510220	-0.751509	-0.830723	0.119803	0.543643	0.367410	0.851659	0.373747
712	627739231													0.928246	-0.595080	-2.664316	-0.443505	0.515438	-0.733230	-0.812299	0.114577	0.571876	0.378778	0.849232	0.367874
713	627755898													0.809855	-0.588843	-2.298566	-0.473217	0.520843	-0.710484	-0.788784	0.108623	0.604997	0.392283	0.846713	0.359430
714	627772565													0.759233	-0.605666	-2.092013	-0.506526	0.526445	-0.682853	-0.759915	0.101618	0.642031	0.407384	0.844115	0.348581
715	627789232													0.809639	-0.673917	-1.942845	-0.541738	0.533872	-0.649230	-0.725358	0.093339	0.682015	0.424707	0.840398	0.336683
716	627805899													0.747037	-0.614462	-2.143949	-0.577448	0.544108	-0.608688	-0.684714	0.083302	0.724036	0.444658	0.834870	0.324456
717	627822566													0.703875	-0.482119	-2.010920	-0.613424	0.555960	-0.560909	-0.636992	0.071544	0.767543	0.466853	0.828124	0.310256
718	627839233													0.689649	-0.370117	-1.928503	-0.647437	0.569890	-0.506015	-0.582708	0.057768	0.810626	0.491199	0.819688	0.294678
719	627855900													1.128380	-0.469327	-1.592371	-0.678354	0.585066	-0.444447	-0.522627	0.040945	0.851578	0.516427	0.809951	0.277996
720	627872567													1.357233	-0.889081	-0.733829	-0.703946	0.602625	-0.375903	-0.456844	0.021067	0.889297	0.543832	0.797746	0.260476
721	627889234													0.198906	-0.607249	0.337660	-0.720504	0.623954	-0.302581	-0.385609	0.002157	0.922660	0.576350	0.781458	0.239048
722	627905901													0.204629	1.217212	-0.634624	-0.727171	0.647347	-0.228394	-0.311096	-0.014188	0.950272	0.611916	0.762063	0.211704
723	627922568													0.296783	1.859478	-1.309583	-0.731867	0.663921	-0.153556	-0.230644	-0.029299	0.972597	0.641229	0.747228	0.174572
724	627939235													0.547104	1.325104	-0.563083	-0.734663	0.674039	-0.077089	-0.145291	-0.045323	0.988350	0.662692	0.737304	0.131229
725	627955902													-0.138012	0.865732	0.859804	-0.730340	0.683084	-0.000301	-0.057065	-0.060574	0.996531	0.680696	0.727823	0.083220
726	627972569													-0.070708	1.680201	1.210568	-0.720395	0.689976	0.070460	0.028333	-0.072230	0.996985	0.692985	0.720219	0.032485
727	627989236													1.458391	2.178969	1.793016	-0.711181	0.690127	0.133961	0.107481	-0.081574	0.990855	0.694744	0.719076	-0.016162
728	628005903													2.039443	2.814347	1.306157	-0.702735	0.684637	0.193482	0.180568	-0.091416	0.979305	0.688156	0.723129	-0.059382
729	628022570													0.861544	1.922752	1.139635	-0.692576	0.674937	0.254556	0.252152	-0.104108	0.962071	0.675839	0.730494	-0.098084
730	628039237													-0.760875	-0.306622	1.850162	-0.676532	0.664902	0.316560	0.323550	-0.117780	0.938852	0.661529	0.737586	-0.135447
731	628055904													-1.585152	-1.508693	2.129337	-0.650827	0.661106	0.373315	0.391761	-0.128762	0.911012	0.650344	0.739161	-0.175193
732	628072571													-1.480952	-1.397385	2.516150	-0.619183	0.661184	0.423614	0.456092	-0.136322	0.879429	0.639212	0.737735	-0.217153
733	628089238													-1.249038	-0.177964	1.675690	-0.584778	0.662217	0.468512	0.517159	-0.140622	0.844258	0.624966	0.735999	-0.260238
734	628105905													-1.471351	0.118436	1.187506	-0.548069	0.662658	0.510396	0.575435	-0.144139	0.805046	0.607038	0.734920	-0.302319
735	628122572													-1.551883	-0.302777	1.320571	-0.507715	0.663724	0.549268	0.631199	-0.147345	0.761497	0.586356	0.733321	-0.344132
736	628139239													-1.782489	-0.496554	1.652273	-0.461497	0.668035	0.583737	0.683855	-0.151270	0.713765	0.565122	0.728592	-0.387029
737	628155906													-1.610194	-0.493988	1.767174	-0.410168	0.677004	0.611087	0.731240	-0.156296	0.663972	0.545023	0.719192	-0.430945
738	628172573													-1.303120	0.287502	1.391437	-0.357172	0.689765	0.629804	0.771766	-0.161868	0.614960	0.526123	0.705707	-0.474522
739	628189240													-0.204987	1.737066	0.858836	-0.306298	0.703076	0.641767	0.805647	-0.167649	0.568178	0.507064	0.691070	-0.515081
740	628205907													0.679054	1.781748	0.772361	-0.261706	0.712106	0.651471	0.833154	-0.174049	0.524939	0.487200	0.680155	-0.547745
741	628222574													0.731483	0.759016	0.821775	-0.223129	0.717746	0.659586	0.855155	-0.180656	0.485873	0.467892	0.672461	-0.573475
742	628239241													0.646291	-0.467763	0.653999	-0.190596	0.721182	0.666010	0.872139	-0.187022	0.452101	0.450606	0.667023	-0.593326
743	628255908													0.172499	-1.589341	0.375114	-0.164703	0.724434	0.669379	0.885007	-0.191082	0.424558	0.435471	0.662331	-0.609658
744	628272575													0.221374	-1.906833	0.136896	-0.146364	0.728193	0.669562	0.894492	-0.191624	0.403936	0.422448	0.658039	-0.623316
745	628289242													0.353643	-1.658206	0.494808	-0.134995	0.733091	0.666599	0.901217	-0.188762	0.390098	0.411806	0.653412	-0.635192
746	628305909													0.440781	-0.698947	0.399588	-0.129204	0.738378	0.661895	0.905710	-0.183889	0.381936	0.403728	0.648832	-0.644997
747	628322576													-0.116978	0.519284	-0.085641	-0.128282	0.741682	0.658370	0.908429	-0.178451	0.378037	0.397870	0.646578	-0.650874
748	628339243													-1.303148	0.548575	-0.203768	-0.132242	0.741936	0.657299	0.909762	-0.172403	0.377637	0.393503	0.647926	-0.652187
749	628355910													-2.405802	0.557704	-0.149374	-0.137528	0.742623	0.655437	0.910328	-0.166030	0.379127	0.390370	0.648803	-0.653197
750	628372577													-2.745596	0.948918	-0.623186	-0.143010	0.743019	0.653812	0.910528	-0.160155	0.381168	0.387926	0.649825	-0.653636
751	628389244													-2.734891	0.827914	-0.944734	-0.148073	0.743201	0.652477	0.910195	-0.155629	0.383828	0.386806	0.650716	-0.653414
752	628405911													-2.553372	0.085452	-0.841872	-0.153107	0.743921	0.650492	0.909343	-0.151624	0.387435	0.386851	0.650839	-0.653265
753	628422578													-2.101697	-0.571610	-0.788083	-0.158330	0.746716	0.646025	0.907865	-0.147152	0.392590	0.388217	0.648662	-0.654618
754	628439245													-1.124850	-0.538701	-0.659330	-0.165402	0.750915	0.639351	0.905243	-0.141671	0.400581	0.391379	0.645025	-0.656327
755	628455912													-0.284408	-0.222087	-0.429069	-0.176421	0.753751	0.633037	0.900850	-0.135530	0.412432	0.396666	0.643033	-0.655106
756	628472579													0.286925	-0.077181	-0.200947	-0.193349	0.752542	0.629521	0.893946	-0.129291	0.429120	0.404322	0.645727	-0.647734
757	628489246													0.492251	-0.239869	-0.201233	-0.217681	0.746664	0.628576	0.883777	-0.122511	0.451585	0.414190	0.653823	-0.633216
758	628505913													0.537401	-0.113805	-0.201269	-0.250148	0.736042	0.629021	0.869525	-0.114969	0.480321	0.425855	0.667101	-0.611248
759	628522580													-0.242032	-0.339243	0.250159	-0.290024	0.721458	0.628796	0.850293	-0.107268	0.515262	0.439190	0.684100	-0.582340
760	628539247													-0.731395	-0.079666	0.708049	-0.336196	0.704505	0.625016	0.824987	-0.099814	0.556268	0.454279	0.702645	-0.547650
761	628555914													-1.274682	-0.158232	1.302873	-0.388197	0.685453	0.616001	0.792524	-0.092829	0.602734	0.470329	0.722175	-0.507202
762	628572581													-1.581893	-0.206049	1.933641	-0.444311	0.665731	0.599491	0.752113	-0.086378	0.653349	0.486738	0.741175	-0.462327
763	628589248													-2.012798	-0.275434	2.275511	-0.501484	0.647116	0.574243	0.703526	-0.081301	0.706004	0.503552	0.758044	-0.414492
764	628605915													-2.632673	-0.025151	2.618622	-0.559134	0.629121	0.539978	0.645893	-0.077803	0.759453	0.519800	0.773404	-0.362842
765	628622582													-3.221957	-0.674095	3.108196	-0.612859	0.614677	0.496563	0.580656	-0.075902	0.810603	0.535950	0.785118	-0.310399
766	628639249													-3.310605	-0.906751	2.974884	-0.659392	0.606059	0.444853	0.509002	-0.075577	0.857441	0.553281	0.791821	-0.258651
767	628655916													-3.442688	-1.394300	3.127905	-0.697369	0.603628	0.386406	0.432192	-0.075907	0.898581	0.571739	0.793645	-0.207948
768	628672583													-2.892154	-1.616853	3.148010	-0.727357	0.606316	0.321452	0.349953	-0.075230	0.933742	0.590326	0.791657	-0.157463
769	628689250													-1.404413	-0.733886	3.010274	-0.748864	0.613353	0.251000	0.262072	-0.073793	0.962223	0.608705	0.786354	-0.105481
770	628705917													-0.191516	-0.433140	3.034929	-0.764798	0.619404	0.177266	0.170450	-0.070810	0.982819	0.621314	0.781873	-0.051422
771	628722584													-0.267236	-1.045760	3.081380	-0.774909	0.624016	0.100595	0.075845	-0.066202	0.994920	0.627506	0.778602	0.003972
772	628739251													-0.346780	-1.176765	2.763864	-0.777529	0.628494	0.021058	-0.020954	-0.059362	0.998017	0.628498	0.775546	0.059325
773	628755918													0.505245	-0.713486	2.609727	-0.772589	0.632043	-0.060230	-0.117086	-0.048596	0.991932	0.624016	0.773408	0.111548
774	628772585													1.347861	0.075844	2.098387	-0.760072	0.634110	-0.142113	-0.211834	-0.035027	0.976678	0.614343	0.772449	0.160949
775	628789252													2.143252	0.084284	1.728974	-0.740573	0.633868	-0.223077	-0.304683	-0.020857	0.952225	0.598932	0.773160	0.208575
776	628805919													1.385466	-0.189319	1.650460	-0.712435	0.634040	-0.300715	-0.393006	-0.005485	0.919520	0.581362	0.773281	0.253089
777	628822586													1.160930	-0.246372	1.869896	-0.675102	0.636689	-0.372644	-0.474798	0.011617	0.880018	0.564627	0.771033	0.294456
778	628839253													1.734221	0.945832	0.818443	-0.631155	0.640143	-0.438019	-0.549327	0.029788	0.835076	0.547616	0.767678	0.332847
779	628855920													2.181262	1.749851	-0.504989	-0.584134	0.640654	-0.498346	-0.617401	0.047845	0.785192	0.526880	0.766337	0.367593
780	628872587													2.418040	2.181984	-1.483283	-0.535425	0.637041	-0.554526	-0.679306	0.065316	0.730943	0.501860	0.768058	0.397774
781	628889254													2.458709	1.987477	-1.951504	-0.485075	0.629665	-0.606815	-0.735331	0.081855	0.672746	0.473276	0.772542	0.423306
782	628905921													2.523397	1.376725	-2.216697	-0.432432	0.620720	-0.653995	-0.785026	0.097618	0.611723	0.443550	0.777931	0.445068
783	628922588													2.533422	1.019034	-2.569144	-0.378837	0.611368	-0.694775	-0.827263	0.112835	0.550367	0.414872	0.783261	0.463016
784	628939255													2.146556	0.749398	-2.970632	-0.325694	0.602528	-0.728617	-0.861821	0.127733	0.490866	0.388829	0.787810	0.477669
785	628955922													1.711401	0.979960	-3.440500	-0.274449	0.593640	-0.756485	-0.889335	0.142513	0.434481	0.365734	0.792011	0.488832
786	628972589													1.338707	1.013920	-3.901428	-0.227445	0.582784	-0.780148	-0.910374	0.157132	0.382791	0.345671	0.797290	0.494813
787	628989256													1.288039	-0.142576	-3.612083	-0.185974	0.570453	-0.799998	-0.925818	0.170934	0.337110	0.329052	0.803346	0.496347
788	629005923													0.852775	-0.563885	-3.125914	-0.149177	0.560275	-0.814763	-0.936740	0.183788	0.297892	0.316645	0.807659	0.497415
789	629022590													0.329124	-0.708747	-2.778843	-0.118365	0.551700	-0.825601	-0.944078	0.195158	0.265764	0.307745	0.810888	0.497748
790	629039257													0.021340	-1.117577	-2.352767	-0.093118	0.545651	-0.832823	-0.948848	0.204819	0.240284	0.301689	0.812597	0.498667
791	629055924													-0.290944	-0.989378	-2.124512	-0.073488	0.542185	-0.837040	-0.951795	0.212496	0.221205	0.297801	0.812946	0.500433
792	629072591													-0.438760	-0.533094	-1.931644	-0.058661	0.541014	-0.838965	-0.953539	0.218408	0.207514	0.295504	0.812159	0.503066
793	629089258													-0.245146	-0.270939	-1.944098	-0.048026	0.541765	-0.839157	-0.954457	0.222776	0.198451	0.294458	0.810469	0.506393
794	629105925													0.043693	0.170137	-2.332743	-0.041466	0.544190	-0.837936	-0.954751	0.225618	0.193772	0.294502	0.808055	0.510211
795	629122592													0.465820	0.664820	-2.825329	-0.038457	0.547462	-0.835947	-0.954545	0.227325	0.192788	0.295576	0.805363	0.513834
796	629139259													1.132357	1.101689	-3.473399	-0.039092	0.550034	-0.834227	-0.953812	0.228314	0.195231	0.297850	0.803328	0.515703
797	629155926													1.806127	1.276360	-4.273647	-0.043712	0.550844	-0.833463	-0.952391	0.228986	0.201288	0.301729	0.802581	0.514609
798	629172593													2.269827	1.285073	-4.840022	-0.052342	0.550568	-0.833148	-0.950041	0.229614	0.211421	0.307704	0.802591	0.511044
799	629189260													2.538018	1.065005	-5.107453	-0.065102	0.549286	-0.833094	-0.946543	0.230336	0.225836	0.315940	0.803262	0.504928
800	629205927													2.683209	0.673941	-5.156817	-0.082066	0.547274	-0.832921	-0.941588	0.231312	0.244757	0.326614	0.804355	0.496324
801	629222594													2.785201	0.232410	-5.176528	-0.103891	0.544859	-0.832067	-0.934778	0.232246	0.268796	0.339700	0.805723	0.485194
802	629239261													2.948343	-0.062395	-4.694781	-0.130868	0.542887	-0.829546	-0.925656	0.232721	0.298332	0.355013	0.806917	0.472071
803	629255928													2.890744	-0.422073	-3.978000	-0.163144	0.541734	-0.824566	-0.913692	0.232356	0.333434	0.372225	0.807797	0.457070
804	629272595													2.630849	-0.591625	-3.378276	-0.200429	0.541873	-0.816212	-0.898141	0.231183	0.374027	0.391370	0.808039	0.440343
805	629289262													2.343128	-0.453358	-2.830311	-0.242590	0.543457	-0.803620	-0.878228	0.228897	0.419907	0.412148	0.807626	0.421751
806	629305929													1.976594	-0.146630	-2.288807	-0.289322	0.546148	-0.786139	-0.853319	0.224986	0.470349	0.433750	0.806910	0.400945
807	629322596													1.868124	-0.181097	-1.797488	-0.340077	0.549572	-0.763098	-0.822601	0.219385	0.524593	0.455714	0.806127	0.377470
808	629339263													1.869449	-0.271966	-1.258778	-0.393440	0.554688	-0.733162	-0.785109	0.212210	0.581868	0.478339	0.804542	0.351999
809	629355930													1.546961	-0.522571	-0.680183	-0.447488	0.562045	-0.695600	-0.739987	0.204058	0.640921	0.502170	0.801539	0.324593
810	629372597													1.072826	-0.811627	-0.094739	-0.500211	0.571644	-0.650394	-0.686703	0.195664	0.700110	0.527473	0.796830	0.294676
811	629389264													0.753886	-0.689364	0.406614	-0.550060	0.582971	-0.597979	-0.625365	0.187030	0.757587	0.553491	0.790674	0.261691
812	629405931													0.647570	-0.440373	0.365658	-0.595275	0.595519	-0.539448	-0.557057	0.177976	0.811180	0.579082	0.783378	0.225794
813	629422598													0.585437	-0.886031	0.949756	-0.633216	0.610984	-0.475117	-0.482826	0.167944	0.859461	0.604910	0.773624	0.188654
814	629439265													-0.157939	-0.663325	1.736221	-0.661521	0.630709	-0.405705	-0.402662	0.157666	0.901668	0.632656	0.759834	0.149663
815	629455932													-1.389112	-0.238935	2.023647	-0.679979	0.652531	-0.334412	-0.317292	0.149303	0.936501	0.661025	0.742908	0.105520
816	629472599													-1.131411	0.171002	1.601061	-0.689395	0.674375	-0.264485	-0.229477	0.142997	0.962753	0.687077	0.724410	0.056172
817	629489266													-0.576355	0.541677	1.033106	-0.693259	0.693588	-0.195773	-0.140729	0.136134	0.980644	0.706815	0.707391	0.003232
818	629505933													-0.422384	0.798242	0.912601	-0.693936	0.708724	-0.127133	-0.052131	0.126649	0.990577	0.718147	0.694025	-0.050940
819	629522600													-1.249070	0.886364	1.076086	-0.688746	0.722496	-0.060229	0.035451	0.116536	0.992554	0.724135	0.681482	-0.105877
820	629539267													-1.741256	0.794551	1.514157	-0.678656	0.734451	0.002877	0.120209	0.107211	0.986943	0.724552	0.670140	-0.161047
821	629555934													-0.658109	0.856677	1.869550	-0.664683	0.744543	0.062065	0.200261	0.097515	0.974878	0.719786	0.660413	-0.213920
822	629572601													-0.199812	0.747186	2.094204	-0.648388	0.752089	0.118134	0.275121	0.086789	0.957484	0.709860	0.653323	-0.263189
823	629589268													-0.752522	0.449764	1.887871	-0.629208	0.758163	0.171132	0.345003	0.075141	0.935589	0.696470	0.647721	-0.308848
824	629605935													-1.767436	0.358530	1.720053	-0.607261	0.763564	0.219552	0.409936	0.064411	0.909837	0.680578	0.642511	-0.352127
825	629622602													-1.757993	0.350134	1.535917	-0.584676	0.767651	0.262423	0.469356	0.056236	0.881217	0.661709	0.638396	-0.393181
826	629639269													-1.113044	0.416187	1.697375	-0.561179	0.771176	0.300608	0.523584	0.049466	0.850537	0.641044	0.634697	-0.431535
827	629655936													-0.598535	0.461356	1.413504	-0.535475	0.775292	0.334947	0.573242	0.042402	0.818289	0.620210	0.630179	-0.467134
828	629672603													-0.646823	0.152596	1.276702	-0.507658	0.779322	0.367343	0.619423	0.033795	0.784330	0.598831	0.625712	-0.499886
829	629689270													-1.472640	-0.550472	1.436353	-0.476538	0.784791	0.396251	0.662206	0.023954	0.748939	0.578268	0.619298	-0.531108
830	629705937													-1.987376	-0.378280	1.122597	-0.443573	0.792301	0.418929	0.700006	0.014378	0.713993	0.559674	0.609960	-0.560993
831	629722604													-1.566666	0.801485	0.662832	-0.412863	0.799331	0.436594	0.732193	0.006185	0.681069	0.541699	0.600859	-0.587818
832	629739271													-1.096576	1.340593	0.376622	-0.386541	0.803918	0.451999	0.759482	-0.000581	0.650528	0.523234	0.594740	-0.610336
833	629755938													-1.051513	1.176077	0.422052	-0.363444	0.806045	0.467118	0.782669	-0.007783	0.622390	0.505310	0.591803	-0.628038
834	629772605													-1.307266	0.513810	0.543804	-0.340997	0.807262	0.481715	0.802890	-0.016440	0.595900	0.488967	0.589965	-0.642537
835	629789272													-1.660849	-0.110042	0.598533	-0.317457	0.809080	0.494581	0.820842	-0.026687	0.570532	0.474805	0.587092	-0.655654
836	629805939													-1.890157	-0.561358	0.403821	-0.292694	0.812454	0.504230	0.836640	-0.037734	0.546451	0.462993	0.581802	-0.668688
837	629822606													-1.708335	-0.530380	0.098863	-0.268310	0.816972	0.510457	0.850274	-0.048235	0.524125	0.452817	0.574657	-0.681708
838	629839273													-1.041239	-0.275239	-0.076835	-0.246638	0.821390	0.514285	0.861670	-0.056991	0.504259	0.443503	0.567513	-0.693711
839	629855940													-0.433233	-0.104454	-0.094786	-0.229390	0.824289	0.517617	0.870558	-0.064097	0.487873	0.435326	0.562529	-0.702888
840	629872607													0.335251	0.093170	-0.146456	-0.217790	0.825206	0.521155	0.876715	-0.069232	0.476002	0.428880	0.560573	-0.708392
841	629889274													0.488714	-0.014523	-0.094686	-0.213116	0.823067	0.526442	0.880075	-0.072291	0.469299	0.424322	0.563324	-0.708955
842	629905941													0.207939	-0.275026	0.122146	-0.214171	0.818884	0.532504	0.880819	-0.073750	0.467675	0.422243	0.569202	-0.705493
843	629922608													-0.081880	-0.444740	0.118521	-0.220248	0.813225	0.538661	0.879001	-0.073950	0.471050	0.422904	0.577232	-0.698539
844	629939275													-0.436470	-0.566382	0.060044	-0.231102	0.806451	0.544268	0.874787	-0.072613	0.479036	0.425840	0.586825	-0.688692
845	629955942													-0.616654	-0.488771	0.063155	-0.246579	0.798657	0.548951	0.867985	-0.069942	0.491640	0.431047	0.597709	-0.675976
846	629972609													-0.764633	-0.320045	0.027186	-0.266833	0.789687	0.552443	0.858113	-0.066246	0.509169	0.438681	0.609922	-0.659965
847	629989276													-0.497162	0.325264	-0.050272	-0.292812	0.778702	0.554873	0.844292	-0.061824	0.532306	0.448812	0.624340	-0.639349
848	630005943													-0.630375	0.623423	0.132208	-0.325825	0.763886	0.557061	0.825661	-0.057128	0.561267	0.460568	0.642818	-0.612097
849	630022610													-0.779744	0.584374	0.418080	-0.365646	0.745612	0.557105	0.801565	-0.051968	0.595645	0.473072	0.664351	-0.578654
850	630039277													-1.024003	-0.017570	1.038752	-0.410069	0.725724	0.552421	0.771311	-0.047305	0.634698	0.486748	0.686358	-0.540360
851	630055944													-1.072266	-0.169958	1.687320	-0.457544	0.706293	0.540189	0.733788	-0.043198	0.678004	0.502204	0.706601	-0.498504
852	630072611													-1.049614	0.277444	2.156175	-0.506782	0.688387	0.518938	0.687837	-0.039983	0.724763	0.519665	0.724241	-0.453235
853	630089278													-1.297699	0.826284	2.788045	-0.558179	0.669848	0.489633	0.632419	-0.038532	0.773668	0.537106	0.741498	-0.402116
854	630105945													-1.982427	-0.020601	3.485776	-0.609251	0.651549	0.451992	0.567615	-0.039704	0.822336	0.553739	0.757567	-0.345639
855	630122612													-2.708673	-1.401122	2.997783	-0.655244	0.637443	0.405367	0.495317	-0.042624	0.867666	0.570366	0.769318	-0.287806
856	630139279													-3.232747	-2.256480	2.704165	-0.694029	0.628581	0.351013	0.417741	-0.045490	0.907427	0.586359	0.776412	-0.231013
857	630155946													-3.363251	-3.108490	2.533897	-0.724489	0.625273	0.290084	0.335834	-0.047312	0.940732	0.601939	0.778971	-0.175711
858	630172613													-2.620977	-2.503745	2.240967	-0.746458	0.626421	0.224495	0.250832	-0.047603	0.966860	0.616348	0.778030	-0.121592
859	630189280													-1.724002	-1.806825	1.746909	-0.761672	0.628871	0.156132	0.164135	-0.045845	0.985372	0.626829	0.776157	-0.068301
860	630205947													-0.794889	-1.654742	1.747000	-0.770916	0.631072	0.086234	0.076997	-0.042060	0.996144	0.632265	0.774583	-0.016166
861	630222614													-0.115079	-1.336470	1.493904	-0.772879	0.634377	0.014938	-0.009922	-0.035620	0.999316	0.634476	0.772202	0.033824
862	630239281													0.670878	-0.705922	1.271218	-0.768011	0.637957	-0.056308	-0.095830	-0.027543	0.995017	0.633226	0.769580	0.082289
863	630255948													1.167791	-0.152478	0.590604	-0.756006	0.642327	-0.125980	-0.178588	-0.017246	0.983773	0.629731	0.766237	0.127750
864	630272615													0.977418	0.535134	0.340508	-0.738085	0.646608	-0.192688	-0.257230	-0.005654	0.966334	0.623749	0.762802	0.170500
