// Start Time: Unknown
// Update Rate: 100.0Hz
//Filter Profile: human (46.1)
// Option Flags: AHS Disabled ICC Disabled
// Firmware Version: 4.0.2
PacketCounter	SampleTimeFine	Year	Month	Day	Second	UTC_Nano	UTC_Year	UTC_Month	UTC_Day	UTC_Hour	UTC_Minute	UTC_Second	UTC_Valid	Acc_X	Acc_Y	Acc_Z	Mat[1][1]	Mat[1][2]	Mat[1][3]	Mat[2][1]	Mat[2][2]	Mat[2][3]	Mat[3][1]	Mat[3][2]	Mat[3][3]
1	661481793													-0.017203	0.011265	0.107174	-0.218933	-0.176549	-0.959635	0.073472	-0.983685	0.164212	-0.972970	-0.034554	0.228332
2	661498460													-0.032189	0.008839	0.116939	-0.218072	-0.177430	-0.959668	0.073351	-0.983533	0.165174	-0.973172	-0.034373	0.227496
3	661515127													0.002462	0.026647	0.160552	-0.216764	-0.178679	-0.959733	0.073163	-0.983316	0.166545	-0.973479	-0.034116	0.226220
4	661531794													-0.021033	0.048930	0.169979	-0.215850	-0.179697	-0.959749	0.073245	-0.983130	0.167602	-0.973676	-0.034120	0.225370
5	661548461													-0.005583	0.082000	0.226677	-0.214787	-0.181509	-0.959646	0.073490	-0.982797	0.169439	-0.973892	-0.034131	0.224431
6	661565128													0.010147	0.131603	0.273401	-0.213712	-0.182491	-0.959700	0.073940	-0.982600	0.170381	-0.974094	-0.034548	0.223487
7	661581795													0.040419	0.145443	0.206339	-0.212580	-0.183739	-0.959713	0.074559	-0.982349	0.171558	-0.974295	-0.035086	0.222527
8	661598462													0.045721	0.145390	0.123214	-0.211641	-0.185005	-0.959678	0.075153	-0.982094	0.172752	-0.974454	-0.035561	0.221755
9	661615129													0.051440	0.130227	0.105451	-0.210765	-0.186562	-0.959569	0.075674	-0.981788	0.174261	-0.974603	-0.035886	0.221044
10	661631796													0.072343	0.104931	0.099921	-0.209970	-0.187825	-0.959497	0.075979	-0.981541	0.175514	-0.974751	-0.036049	0.220365
11	661648463													0.134513	0.053114	0.084586	-0.209397	-0.189137	-0.959364	0.075994	-0.981295	0.176874	-0.974873	-0.035869	0.219854
12	661665130													0.131720	0.050478	0.142542	-0.209182	-0.190730	-0.959096	0.075734	-0.981008	0.178570	-0.974940	-0.035282	0.219654
13	661681797													0.136185	0.017182	0.150150	-0.209155	-0.192260	-0.958796	0.075281	-0.980738	0.180238	-0.974980	-0.034481	0.219600
14	661698464													0.134087	-0.021119	0.140180	-0.209272	-0.193981	-0.958424	0.074645	-0.980436	0.182137	-0.975004	-0.033426	0.219657
15	661715131													0.114082	-0.078514	0.078253	-0.209482	-0.195902	-0.957987	0.073832	-0.980097	0.184279	-0.975021	-0.032127	0.219776
16	661731798													0.137091	-0.102854	0.073997	-0.209934	-0.197966	-0.957464	0.072874	-0.979731	0.186592	-0.974996	-0.030602	0.220106
17	661748465													0.075495	-0.081978	0.132168	-0.210460	-0.199752	-0.956977	0.071787	-0.979417	0.188648	-0.974963	-0.028995	0.220468
18	661765132													-0.052814	-0.045149	0.192243	-0.210647	-0.201222	-0.956628	0.070625	-0.979161	0.190410	-0.975008	-0.027452	0.220468
19	661781799													-0.216011	-0.020759	0.166556	-0.210296	-0.202029	-0.956535	0.069338	-0.979033	0.191537	-0.975176	-0.026044	0.219895
20	661798466													-0.282419	0.062799	0.083959	-0.209555	-0.201769	-0.956753	0.067791	-0.979122	0.191638	-0.975444	-0.024701	0.218858
21	661815133													-0.247668	0.107651	0.068483	-0.208860	-0.201315	-0.957000	0.066117	-0.979250	0.191566	-0.975708	-0.023264	0.217837
22	661831800													-0.143885	0.034770	0.122113	-0.208519	-0.200811	-0.957181	0.064362	-0.979390	0.191450	-0.975898	-0.021685	0.217146
23	661848467													-0.096132	-0.020749	0.157737	-0.208263	-0.200467	-0.957308	0.062482	-0.979498	0.191520	-0.976075	-0.019928	0.216519
24	661865134													-0.030122	-0.051074	0.168869	-0.208037	-0.200301	-0.957393	0.060605	-0.979567	0.191771	-0.976242	-0.018127	0.215925
25	661881801													0.026062	-0.077412	0.148004	-0.207849	-0.200213	-0.957452	0.058832	-0.979615	0.192076	-0.976390	-0.016406	0.215391
26	661898468													0.038838	-0.099803	0.162202	-0.207762	-0.200092	-0.957496	0.057083	-0.979667	0.192339	-0.976512	-0.014696	0.214959
27	661915135													0.048298	-0.160422	0.115113	-0.207685	-0.199846	-0.957564	0.055259	-0.979742	0.192489	-0.976634	-0.012937	0.214521
28	661931802													0.067977	-0.187428	0.102145	-0.207717	-0.199231	-0.957685	0.053275	-0.979890	0.192295	-0.976737	-0.011078	0.214154
29	661948469													0.020645	-0.153382	0.102118	-0.207763	-0.198742	-0.957777	0.051241	-0.980009	0.192240	-0.976836	-0.009137	0.213793
30	661965136													0.083620	-0.123211	0.115816	-0.207843	-0.197783	-0.957958	0.049170	-0.980219	0.191711	-0.976926	-0.007257	0.213457
31	661981803													0.134474	-0.056888	0.121717	-0.208085	-0.196445	-0.958180	0.047089	-0.980500	0.190795	-0.976977	-0.005418	0.213278
32	661998470													0.150642	-0.005858	0.137626	-0.208531	-0.195073	-0.958364	0.045005	-0.980782	0.189843	-0.976980	-0.003543	0.213303
33	662015137													0.138684	0.018375	0.183574	-0.209119	-0.193595	-0.958535	0.042915	-0.981080	0.188786	-0.976948	-0.001656	0.213471
34	662031804													0.070082	0.049353	0.189866	-0.209653	-0.192347	-0.958670	0.040813	-0.981327	0.187967	-0.976924	0.000281	0.213589
35	662048471													0.013337	0.091586	0.150208	-0.210086	-0.191108	-0.958823	0.038582	-0.981566	0.187187	-0.976921	0.002332	0.213586
36	662065138													-0.045429	0.112289	0.117498	-0.210583	-0.189971	-0.958940	0.036336	-0.981780	0.186517	-0.976900	0.004433	0.213649
37	662081805													-0.006531	0.118588	0.104688	-0.211164	-0.189099	-0.958985	0.034048	-0.981935	0.186128	-0.976858	0.006652	0.213787
38	662098472													0.043884	0.144220	0.080471	-0.211761	-0.188625	-0.958946	0.031790	-0.982009	0.186141	-0.976804	0.008933	0.213947
39	662115139													0.088149	0.142239	0.118051	-0.212440	-0.188648	-0.958792	0.029562	-0.981980	0.186660	-0.976727	0.011310	0.214189
40	662131806													0.146883	0.138669	0.156190	-0.213171	-0.188989	-0.958562	0.027397	-0.981884	0.187494	-0.976631	0.013706	0.214486
41	662148473													0.145615	0.117398	0.129752	-0.213845	-0.189522	-0.958307	0.025215	-0.981744	0.188530	-0.976542	0.016152	0.214719
42	662165140													0.139969	0.110339	0.104295	-0.214509	-0.190238	-0.958016	0.023040	-0.981561	0.189755	-0.976450	0.018631	0.214937
43	662181807													0.163625	0.061449	0.142373	-0.215277	-0.190779	-0.957736	0.020747	-0.981404	0.190830	-0.976333	0.021211	0.215232
44	662198474													0.137423	0.011556	0.170471	-0.216075	-0.191064	-0.957500	0.018159	-0.981283	0.191712	-0.976208	0.024037	0.215501
45	662215141													0.132470	0.032182	0.061170	-0.217084	-0.191306	-0.957223	0.015690	-0.981165	0.192532	-0.976027	0.026777	0.215997
46	662231808													0.184564	0.028590	0.103877	-0.217965	-0.191243	-0.957036	0.013142	-0.981099	0.193059	-0.975868	0.029503	0.216359
47	662248475													0.202526	0.004093	0.114796	-0.218901	-0.191068	-0.956857	0.010574	-0.981047	0.193479	-0.975690	0.032235	0.216772
48	662265142													0.225268	-0.005068	0.136048	-0.219877	-0.190488	-0.956749	0.007862	-0.981064	0.193522	-0.975496	0.035029	0.217211
49	662281809													0.221336	0.027742	0.141345	-0.220900	-0.189817	-0.956646	0.004916	-0.981082	0.193530	-0.975284	0.038048	0.217655
50	662298476													0.112380	0.070174	0.149497	-0.221932	-0.188873	-0.956595	0.001935	-0.981144	0.193271	-0.975060	0.041042	0.218112
51	662315143													0.021374	0.098413	0.167461	-0.222804	-0.187750	-0.956613	-0.001075	-0.981231	0.192832	-0.974863	0.043992	0.218420
52	662331810													0.018168	0.103554	0.138913	-0.223420	-0.186354	-0.956742	-0.004251	-0.981358	0.192141	-0.974713	0.046995	0.218463
53	662348477													0.040196	0.138189	0.115195	-0.223967	-0.184754	-0.956924	-0.007645	-0.981504	0.191289	-0.974567	0.050158	0.218412
54	662365144													0.031803	0.226513	0.142302	-0.224764	-0.183323	-0.957013	-0.011077	-0.981599	0.190635	-0.974350	0.053449	0.218598
55	662381811													-0.057232	0.260675	0.326616	-0.225289	-0.182328	-0.957080	-0.014338	-0.981607	0.190376	-0.974187	0.056612	0.218531
56	662398478													-0.193045	0.254105	0.310379	-0.224906	-0.181255	-0.957373	-0.017558	-0.981632	0.189973	-0.974222	0.059536	0.217593
57	662415145													-0.264687	0.280678	0.161216	-0.224139	-0.179925	-0.957804	-0.020892	-0.981697	0.189302	-0.974333	0.062440	0.216278
58	662431812													-0.233234	0.259834	0.164902	-0.223175	-0.178257	-0.958341	-0.024260	-0.981817	0.188273	-0.974477	0.065267	0.214792
59	662448479													-0.147137	0.242468	0.131041	-0.221795	-0.176868	-0.958919	-0.027535	-0.981884	0.187472	-0.974705	0.067984	0.212907
60	662465146													0.033552	0.146422	0.031333	-0.220121	-0.175928	-0.959477	-0.030733	-0.981863	0.187083	-0.974988	0.070668	0.210722
61	662481813													0.230255	0.147784	-0.019987	-0.218563	-0.175143	-0.959977	-0.033935	-0.981802	0.186851	-0.975233	0.073415	0.208642
62	662498480													0.448993	0.138680	-0.103002	-0.217231	-0.174697	-0.960360	-0.037044	-0.981670	0.186953	-0.975417	0.076188	0.206778
63	662515147													0.703304	0.073196	-0.229662	-0.216321	-0.174857	-0.960537	-0.040031	-0.981416	0.187673	-0.975501	0.079049	0.205301
64	662531814													0.813874	-0.000401	-0.129285	-0.216076	-0.175615	-0.960453	-0.042946	-0.981030	0.189039	-0.975432	0.082094	0.204435
65	662548481													0.802487	-0.042941	-0.109341	-0.216541	-0.177029	-0.960089	-0.045730	-0.980503	0.191107	-0.975202	0.085287	0.204223
66	662565148													0.809634	-0.418014	-0.052890	-0.218238	-0.179012	-0.959337	-0.048588	-0.979820	0.193888	-0.974685	0.088926	0.205136
67	662581815													0.557311	-0.752682	0.100896	-0.220947	-0.181261	-0.958294	-0.051591	-0.979029	0.197078	-0.973920	0.092983	0.206963
68	662598482													0.266287	-0.811163	0.195182	-0.223757	-0.183248	-0.957263	-0.054354	-0.978292	0.199978	-0.973128	0.096777	0.208939
69	662615149													0.077704	-0.709349	0.051223	-0.225862	-0.183931	-0.956638	-0.057012	-0.977835	0.201467	-0.972490	0.100044	0.210369
70	662631816													-0.195612	-0.393808	-0.059178	-0.227429	-0.183603	-0.956329	-0.059409	-0.977619	0.201819	-0.971981	0.102714	0.211432
71	662648483													-0.528103	-0.168024	0.228404	-0.228692	-0.182406	-0.956257	-0.061363	-0.977635	0.201159	-0.971563	0.104682	0.212384
72	662665150													-0.963138	-0.170165	0.601883	-0.228855	-0.179637	-0.956743	-0.063350	-0.977994	0.198780	-0.971397	0.106102	0.212438
73	662681817													-1.269758	0.011537	0.627218	-0.227931	-0.175944	-0.957649	-0.065722	-0.978515	0.195420	-0.971457	0.107481	0.211471
74	662698484													-1.293193	0.313437	0.518837	-0.226546	-0.173341	-0.958452	-0.068031	-0.978817	0.193104	-0.971622	0.108951	0.209954
75	662715151													-0.976201	0.345334	0.394815	-0.225141	-0.171811	-0.959058	-0.070051	-0.978928	0.191815	-0.971805	0.110368	0.208361
76	662731818													-0.623783	0.306520	0.243118	-0.223801	-0.171654	-0.959400	-0.071751	-0.978796	0.191862	-0.971990	0.111776	0.206740
77	662748485													-0.222352	0.247880	-0.048553	-0.222557	-0.173098	-0.959430	-0.072918	-0.978400	0.193435	-0.972189	0.113010	0.205128
78	662765152													0.129203	0.104811	-0.300559	-0.221786	-0.175391	-0.959192	-0.073477	-0.977887	0.195799	-0.972323	0.113904	0.203995
79	662781819													0.269734	-0.250941	-0.105217	-0.221628	-0.176724	-0.958984	-0.073627	-0.977601	0.197170	-0.972348	0.114306	0.203652
80	662798486													0.280603	-0.751876	0.154392	-0.221480	-0.175408	-0.959259	-0.074038	-0.977825	0.195897	-0.972350	0.114409	0.203582
81	662815153													0.312439	-1.236521	0.283760	-0.221662	-0.172004	-0.959833	-0.075115	-0.978383	0.192675	-0.972226	0.114807	0.203951
82	662831820													0.385883	-1.568409	0.267694	-0.222069	-0.168143	-0.960424	-0.076672	-0.978957	0.189116	-0.972012	0.115634	0.204504
83	662848487													0.483231	-1.507070	0.141625	-0.222350	-0.164548	-0.960981	-0.078060	-0.979486	0.185778	-0.971837	0.116322	0.204944
84	662865154													0.634370	-1.325486	0.079947	-0.222146	-0.161104	-0.961611	-0.078744	-0.980069	0.182387	-0.971828	0.116237	0.205033
85	662881821													0.736496	-1.107910	-0.016574	-0.221526	-0.156543	-0.962508	-0.078883	-0.980919	0.177692	-0.971959	0.115289	0.204950
86	662898488													0.657960	-0.779942	0.005769	-0.220915	-0.150258	-0.963649	-0.078949	-0.982063	0.171229	-0.972092	0.113906	0.205090
87	662915155													0.462294	-0.354730	0.125687	-0.220531	-0.142562	-0.964905	-0.079180	-0.983379	0.163388	-0.972161	0.112433	0.205577
88	662931822													0.281514	0.021797	0.199059	-0.220432	-0.134161	-0.966132	-0.079771	-0.984698	0.154940	-0.972135	0.111222	0.206357
89	662948489													0.057898	0.376229	0.143517	-0.220581	-0.126158	-0.967175	-0.080622	-0.985848	0.146981	-0.972031	0.110397	0.207288
90	662965156													-0.065051	0.624761	-0.002427	-0.221169	-0.119888	-0.967838	-0.081437	-0.986679	0.140831	-0.971829	0.109965	0.208460
91	662981823													-0.059144	0.820244	-0.080537	-0.222761	-0.115661	-0.967988	-0.081945	-0.987201	0.136815	-0.971423	0.109799	0.210432
92	662998490													0.054461	0.841642	0.013103	-0.225906	-0.114405	-0.967408	-0.082044	-0.987317	0.135918	-0.970688	0.110075	0.213655
93	663015157													0.007132	0.692495	0.238396	-0.229740	-0.115880	-0.966329	-0.081976	-0.987054	0.137854	-0.969793	0.110887	0.217267
94	663031824													-0.243662	0.385616	0.237768	-0.233739	-0.120500	-0.964803	-0.081494	-0.986371	0.142937	-0.968878	0.112035	0.220734
95	663048491													-0.445793	0.190375	0.069152	-0.237029	-0.126521	-0.963229	-0.080961	-0.985462	0.149364	-0.968123	0.113388	0.223340
96	663065158													-0.356125	0.042934	-0.040252	-0.240071	-0.133178	-0.961577	-0.080162	-0.984442	0.156358	-0.967440	0.114619	0.225661
97	663081825													-0.270800	-0.129405	0.142789	-0.243482	-0.139158	-0.959871	-0.079032	-0.983516	0.162633	-0.966680	0.115459	0.228470
98	663098492													-0.210809	-0.196061	0.559694	-0.246589	-0.143213	-0.958480	-0.077944	-0.982886	0.166913	-0.965981	0.115867	0.231206
99	663115159													-0.266726	-0.095203	0.558477	-0.249063	-0.145258	-0.957532	-0.077298	-0.982553	0.169160	-0.965398	0.116147	0.233490
100	663131826													-0.362350	0.122586	0.386945	-0.251250	-0.146431	-0.956782	-0.076956	-0.982339	0.170551	-0.964858	0.116481	0.235544
101	663148493													-0.454774	0.331271	0.278500	-0.253123	-0.147527	-0.956120	-0.076809	-0.982120	0.171873	-0.964380	0.116943	0.237266
102	663165160													-0.425753	0.674106	0.061454	-0.255212	-0.148817	-0.955364	-0.076772	-0.981846	0.173451	-0.963832	0.117612	0.239154
103	663181827													-0.259861	0.933361	-0.075734	-0.258098	-0.150758	-0.954284	-0.076671	-0.981438	0.175784	-0.963072	0.118536	0.241749
104	663198494													-0.255178	1.198337	-0.151580	-0.261413	-0.153823	-0.952891	-0.076147	-0.980856	0.179228	-0.962219	0.119412	0.244695
105	663215161													-0.258989	1.176338	-0.018332	-0.264907	-0.158033	-0.951236	-0.075108	-0.980100	0.183745	-0.961344	0.120121	0.247766
106	663231828													-0.466699	0.944329	0.118919	-0.268529	-0.162722	-0.949428	-0.074021	-0.979229	0.188764	-0.960423	0.120966	0.250907
107	663248495													-0.785163	0.518455	0.244972	-0.273145	-0.168143	-0.947164	-0.073012	-0.978142	0.194698	-0.959198	0.122335	0.254898
108	663265162													-1.146544	-0.011604	0.613397	-0.278697	-0.173803	-0.944521	-0.072290	-0.976901	0.201092	-0.957654	0.124324	0.259695
109	663281829													-1.344767	-0.311082	0.713480	-0.283627	-0.179314	-0.942020	-0.072182	-0.975582	0.207435	-0.956214	0.126831	0.263758
110	663298496													-1.557000	0.043070	0.240223	-0.287406	-0.186607	-0.939455	-0.071941	-0.973861	0.215450	-0.955103	0.129507	0.266469
111	663315163													-1.401974	0.355235	0.162397	-0.291197	-0.195934	-0.936384	-0.070701	-0.971718	0.225314	-0.954047	0.131814	0.269108
112	663331830													-1.478567	0.134636	0.370684	-0.294035	-0.205247	-0.933497	-0.068947	-0.969572	0.234895	-0.953305	0.133429	0.270937
113	663348497													-1.257996	-0.049657	0.296523	-0.294665	-0.213905	-0.931353	-0.067076	-0.967591	0.243449	-0.953244	0.134207	0.270767
114	663365164													-0.810305	0.014060	0.084224	-0.293997	-0.222524	-0.929542	-0.064805	-0.965643	0.251663	-0.953607	0.134227	0.269476
115	663381831													-0.425974	0.287679	-0.107320	-0.292212	-0.232048	-0.927775	-0.061678	-0.963524	0.260416	-0.954362	0.133320	0.267242
116	663398498													-0.058083	0.573486	-0.146045	-0.289666	-0.242382	-0.925929	-0.057430	-0.961259	0.269597	-0.955403	0.131269	0.264524
117	663415165													0.196733	0.657623	0.037186	-0.286868	-0.252893	-0.923987	-0.052381	-0.958942	0.278722	-0.956537	0.128356	0.261843
118	663431832													0.369928	0.437547	0.187485	-0.284338	-0.262378	-0.922122	-0.047421	-0.956796	0.286866	-0.957551	0.125295	0.259611
119	663448499													0.382866	0.237795	0.266035	-0.282143	-0.269901	-0.920624	-0.043158	-0.955069	0.293226	-0.958401	0.122464	0.257818
120	663465166													0.472303	0.123937	0.341688	-0.280165	-0.275586	-0.919543	-0.039535	-0.953780	0.297893	-0.959137	0.119813	0.256321
121	663481833													0.631540	0.044902	0.485036	-0.278261	-0.280086	-0.918761	-0.036107	-0.952813	0.301403	-0.959827	0.117042	0.255017
122	663498500													0.800480	-0.076197	0.556166	-0.276230	-0.284209	-0.918108	-0.032515	-0.951966	0.304473	-0.960541	0.113956	0.253721
123	663515167													0.970486	-0.220571	0.564770	-0.274016	-0.288407	-0.917462	-0.028503	-0.951121	0.307501	-0.961303	0.110411	0.252402
124	663531834													1.028520	-0.286302	0.448582	-0.271491	-0.292982	-0.916763	-0.023826	-0.950201	0.310724	-0.962146	0.106202	0.250991
125	663548501													1.023175	-0.306344	0.343268	-0.268714	-0.297683	-0.916066	-0.018484	-0.949277	0.313897	-0.963043	0.101281	0.249582
126	663565168													0.990226	-0.339678	0.228676	-0.265883	-0.301465	-0.915655	-0.012867	-0.948650	0.316065	-0.963919	0.095818	0.248351
127	663581835													0.908727	-0.382202	0.248756	-0.263413	-0.303942	-0.915551	-0.007346	-0.948409	0.316963	-0.964655	0.090218	0.247591
128	663598502													0.806397	-0.385955	0.249292	-0.261003	-0.304996	-0.915890	-0.002228	-0.948584	0.316518	-0.965335	0.084653	0.246904
129	663615169													0.850162	-0.366500	0.109563	-0.258623	-0.305262	-0.916477	0.002374	-0.948953	0.315409	-0.965975	0.079396	0.246146
130	663631836													0.942489	-0.226092	-0.089492	-0.256707	-0.305344	-0.916988	0.006539	-0.949309	0.314276	-0.966467	0.074681	0.245690
131	663648503													0.970410	-0.038483	-0.238384	-0.255299	-0.305732	-0.917251	0.010589	-0.949516	0.313540	-0.966804	0.070334	0.245648
132	663665170													0.970251	0.133848	-0.408694	-0.254259	-0.306737	-0.917205	0.014695	-0.949488	0.313460	-0.967024	0.066222	0.245923
133	663681837													0.892720	0.254657	-0.380274	-0.253974	-0.308291	-0.916763	0.019051	-0.949252	0.313939	-0.967023	0.062267	0.246959
134	663698504													0.690726	0.253703	-0.119272	-0.254121	-0.309981	-0.916152	0.023683	-0.948958	0.314511	-0.966882	0.058227	0.248492
135	663715171													0.358088	0.077645	0.061366	-0.253876	-0.311093	-0.915843	0.028291	-0.948848	0.314462	-0.966823	0.053924	0.249690
136	663731838													-0.089200	-0.042843	0.067164	-0.252887	-0.311720	-0.915903	0.032884	-0.948896	0.313870	-0.966937	0.049255	0.250214
137	663748505													-0.479455	-0.058723	0.060281	-0.251233	-0.311266	-0.916513	0.037596	-0.949306	0.312097	-0.967196	0.043952	0.250199
138	663765172													-0.855527	-0.031417	0.103929	-0.248405	-0.309499	-0.917881	0.042705	-0.950159	0.308826	-0.967715	0.037516	0.249241
139	663781839													-1.183400	0.023320	0.277182	-0.243924	-0.306027	-0.920244	0.048236	-0.951560	0.303656	-0.968594	0.029680	0.246870
140	663798506													-1.501191	0.236771	0.456615	-0.237555	-0.300197	-0.923823	0.054026	-0.953659	0.296000	-0.969871	0.020406	0.242765
141	663815173													-1.841698	0.493254	0.553209	-0.229070	-0.292207	-0.928516	0.059799	-0.956303	0.286198	-0.971571	0.010035	0.236534
142	663831840													-2.397615	0.803890	0.569088	-0.217356	-0.282073	-0.934447	0.065676	-0.959391	0.274326	-0.973880	-0.001744	0.227055
143	663848507													-3.001701	1.075033	0.403124	-0.200950	-0.268468	-0.942095	0.071764	-0.963163	0.259165	-0.976969	-0.015530	0.212814
144	663865174													-3.185782	1.138380	0.151984	-0.180259	-0.246612	-0.952202	0.077220	-0.968620	0.236246	-0.980583	-0.030944	0.193646
145	663881841													-3.490736	1.215692	0.115947	-0.156897	-0.215602	-0.963794	0.082047	-0.975353	0.204831	-0.984201	-0.046939	0.170720
146	663898508													-3.788317	1.599448	0.219585	-0.131895	-0.183552	-0.974121	0.088469	-0.980965	0.172863	-0.987308	-0.063380	0.145623
147	663915175													-3.822754	1.412228	0.554516	-0.106299	-0.155224	-0.982144	0.097084	-0.984641	0.145111	-0.989583	-0.079926	0.119736
148	663931842													-3.404734	0.788287	1.052698	-0.081668	-0.130240	-0.988113	0.106456	-0.986893	0.121280	-0.990958	-0.095285	0.094463
149	663948509													-2.735578	0.072212	1.684073	-0.057148	-0.108590	-0.992443	0.115523	-0.988109	0.101463	-0.991659	-0.108851	0.069013
150	663965176													-1.943846	-0.409995	1.846442	-0.033096	-0.092191	-0.995191	0.124513	-0.988360	0.087417	-0.991666	-0.121021	0.044190
151	663981843													-0.635687	-1.174597	2.159563	-0.010832	-0.080658	-0.996683	0.131823	-0.988157	0.078535	-0.991214	-0.130535	0.021337
152	663998510													0.300627	-1.483281	2.184791	0.011010	-0.072814	-0.997285	0.136949	-0.987837	0.073636	-0.990517	-0.137387	-0.000904
153	664015177													0.943901	-1.596684	1.930913	0.033993	-0.067686	-0.997127	0.139738	-0.987582	0.071802	-0.989605	-0.141777	-0.024113
154	664031844													1.401736	-1.891815	1.257947	0.057201	-0.065106	-0.996238	0.140611	-0.987399	0.072602	-0.988411	-0.144234	-0.047326
155	664048511													1.424078	-2.219201	1.026547	0.079931	-0.062695	-0.994827	0.141421	-0.987211	0.073577	-0.986717	-0.146570	-0.070042
156	664065178													2.190361	-2.166708	1.185362	0.106037	-0.057454	-0.992701	0.142832	-0.987096	0.072386	-0.984050	-0.149465	-0.096462
157	664081845													2.922068	-2.333700	0.560346	0.134523	-0.049388	-0.989679	0.143855	-0.987203	0.068818	-0.980413	-0.151628	-0.125697
158	664098512													3.088154	-1.848317	0.117912	0.162014	-0.036321	-0.986120	0.145167	-0.987573	0.060224	-0.976052	-0.152909	-0.154728
159	664115179													2.597168	-1.503848	-0.424836	0.188165	-0.018463	-0.981964	0.147307	-0.987983	0.046803	-0.971028	-0.153457	-0.183184
160	664131846													2.170307	-1.482680	-0.628336	0.212325	0.004323	-0.977190	0.150989	-0.988126	0.028436	-0.965464	-0.153582	-0.210457
161	664148513													1.974966	-1.401494	-0.644934	0.234041	0.030488	-0.971748	0.154944	-0.987903	0.006323	-0.959800	-0.152047	-0.235934
162	664165180													2.265207	-1.077266	-0.689384	0.253505	0.058836	-0.965543	0.158255	-0.987223	-0.018606	-0.954301	-0.148085	-0.259577
163	664181847													2.555065	-0.786869	-1.290181	0.272357	0.088476	-0.958120	0.161963	-0.985771	-0.044989	-0.948467	-0.142927	-0.282812
164	664198514													2.821324	-0.510539	-1.737262	0.289029	0.118912	-0.949906	0.167016	-0.983302	-0.072274	-0.942639	-0.137760	-0.304063
165	664215181													2.692739	0.248564	-2.069051	0.302216	0.146634	-0.941894	0.172615	-0.980181	-0.097210	-0.937480	-0.133207	-0.321538
166	664231848													2.334133	1.054844	-2.020087	0.311507	0.168225	-0.935235	0.177508	-0.977182	-0.116646	-0.933517	-0.129676	-0.334260
167	664248515													2.065016	1.650249	-1.861403	0.319244	0.182026	-0.930027	0.180503	-0.975093	-0.128886	-0.930324	-0.126727	-0.344148
168	664265182													1.734822	1.836885	-1.817684	0.326109	0.190090	-0.926023	0.181581	-0.973929	-0.135978	-0.927729	-0.123804	-0.352123
169	664281849													1.627277	1.738563	-1.932117	0.332572	0.194593	-0.922784	0.180755	-0.973493	-0.140142	-0.925594	-0.120191	-0.358930
170	664298516													1.404418	1.641015	-2.126729	0.338325	0.196758	-0.920229	0.178198	-0.973599	-0.142655	-0.924003	-0.115719	-0.364455
171	664315183													1.168032	1.378102	-2.283203	0.342475	0.195883	-0.918880	0.173298	-0.974413	-0.143132	-0.923406	-0.110221	-0.367658
172	664331850													1.146089	0.868766	-2.273414	0.344192	0.190504	-0.919369	0.164525	-0.976286	-0.140703	-0.924372	-0.102830	-0.367373
173	664348517													1.045392	0.797313	-2.271730	0.342772	0.181137	-0.921790	0.152202	-0.978979	-0.135778	-0.927007	-0.093757	-0.363135
174	664365184													1.078416	0.706669	-2.187149	0.338802	0.168641	-0.925620	0.137144	-0.982149	-0.128742	-0.930808	-0.083325	-0.355883
175	664381851													0.919207	0.405586	-2.114263	0.333091	0.156830	-0.929761	0.121641	-0.984978	-0.122565	-0.935016	-0.072272	-0.347164
176	664398518													0.409380	0.006834	-1.655349	0.326860	0.149358	-0.933196	0.108532	-0.986832	-0.119929	-0.938820	-0.062082	-0.338766
177	664415185													0.152488	-0.239478	-0.739572	0.320674	0.149111	-0.935379	0.099940	-0.987345	-0.123133	-0.941903	-0.053996	-0.331518
178	664431852													-0.067584	-0.173817	0.777388	0.316701	0.158937	-0.935115	0.097018	-0.986119	-0.134748	-0.943551	-0.048048	-0.327725
179	664448519													-1.097709	0.325008	2.139211	0.315094	0.177234	-0.932365	0.098185	-0.983224	-0.153720	-0.943968	-0.043108	-0.327209
180	664465186													-3.084845	1.051663	3.154633	0.315209	0.196546	-0.928447	0.100317	-0.979739	-0.173346	-0.943705	-0.038499	-0.328539
181	664481853													-4.698520	1.297313	3.815148	0.316733	0.211635	-0.924603	0.102008	-0.976737	-0.188624	-0.943013	-0.034574	-0.330954
182	664498520													-4.899651	0.921431	3.167815	0.320592	0.225580	-0.919964	0.104178	-0.973733	-0.202460	-0.941471	-0.030933	-0.335672
183	664515187													-3.977527	0.985315	1.682618	0.321057	0.241730	-0.915690	0.106705	-0.969953	-0.218642	-0.941029	-0.027512	-0.337204
184	664531854													-2.125363	1.456214	0.440620	0.316382	0.255912	-0.913461	0.107705	-0.966389	-0.233436	-0.942498	-0.024529	-0.333311
185	664548521													0.319467	1.716921	-0.828786	0.308712	0.262832	-0.914121	0.105264	-0.964600	-0.241796	-0.945313	-0.021579	-0.325451
186	664565188													2.337087	4.126817	-1.094965	0.296929	0.264861	-0.917432	0.103174	-0.964037	-0.244923	-0.949309	-0.021930	-0.313578
187	664581855													2.746023	7.196665	1.975401	0.285554	0.261884	-0.921887	0.104278	-0.964719	-0.241752	-0.952672	-0.027099	-0.302788
188	664598522													0.587040	4.401472	5.315871	0.286669	0.261696	-0.921594	0.113434	-0.964473	-0.238588	-0.951290	-0.036145	-0.306170
189	664615189													-6.849367	-3.730912	5.506140	0.301363	0.285437	-0.909783	0.124661	-0.957747	-0.259192	-0.945325	-0.035304	-0.324213
190	664631856													2.316286	-1.668042	1.204191	0.276595	0.301748	-0.912383	0.121745	-0.952777	-0.278199	-0.953244	-0.034130	-0.300270
191	664648523													7.273252	2.230771	0.810663	0.267999	0.296123	-0.916781	0.110021	-0.954773	-0.276232	-0.957116	-0.026835	-0.288458
192	664665190													5.926868	1.368079	-4.496813	0.269898	0.265521	-0.925556	0.091138	-0.963957	-0.249961	-0.958566	-0.016889	-0.284369
193	664681857													3.027900	0.559758	-4.540745	0.257650	0.235131	-0.937193	0.069742	-0.971935	-0.224674	-0.963718	-0.007474	-0.266818
194	664698524													3.791698	0.156878	-2.859294	0.242343	0.207807	-0.947674	0.050787	-0.978170	-0.201507	-0.968861	0.000704	-0.247606
195	664715191													4.112374	-0.938345	-1.400075	0.228308	0.185033	-0.955844	0.036372	-0.982710	-0.181546	-0.972909	0.006682	-0.231090
196	664731858													3.845021	-1.576144	0.207927	0.210465	0.170751	-0.962574	0.023399	-0.985226	-0.169654	-0.977321	0.013183	-0.211351
197	664748525													3.363337	-1.149845	0.957707	0.194326	0.159938	-0.967810	0.010644	-0.986904	-0.160956	-0.980879	0.020977	-0.193484
198	664765192													2.566999	-0.887664	0.505610	0.182253	0.155637	-0.970856	0.001111	-0.987425	-0.158085	-0.983251	0.027733	-0.180134
199	664781859													2.084226	-0.892644	-0.279888	0.171004	0.155080	-0.972989	-0.005235	-0.987378	-0.158293	-0.985256	0.032162	-0.168034
200	664798526													1.578665	-1.073076	-0.845708	0.158699	0.153812	-0.975273	-0.010650	-0.987467	-0.157468	-0.987270	0.035377	-0.155072
201	664815193													1.555214	-1.407784	-0.693552	0.145467	0.153542	-0.977376	-0.015216	-0.987420	-0.157385	-0.989246	0.037766	-0.141301
202	664831860													1.360646	-1.123870	-0.246818	0.131130	0.155255	-0.979133	-0.020520	-0.987024	-0.159255	-0.991153	0.040975	-0.126242
203	664848527													1.356836	-0.439726	0.475523	0.116488	0.156069	-0.980853	-0.025932	-0.986762	-0.160088	-0.992853	0.044084	-0.110899
204	664865194													1.178309	0.270302	0.448713	0.102526	0.153234	-0.982857	-0.030523	-0.987114	-0.157081	-0.994262	0.046104	-0.096527
205	664881861													1.364430	0.292159	-0.070540	0.088783	0.147179	-0.985117	-0.033840	-0.988006	-0.150660	-0.995476	0.046713	-0.082737
206	664898528													1.539305	-0.030351	-0.648574	0.074549	0.140510	-0.987269	-0.036519	-0.988975	-0.143510	-0.996548	0.046753	-0.068596
207	664915195													1.595731	-0.493935	-0.521339	0.059197	0.134613	-0.989128	-0.039588	-0.989770	-0.137069	-0.997461	0.047272	-0.053263
208	664931862													1.260097	-0.513632	-0.156666	0.043369	0.130723	-0.990470	-0.043557	-0.990213	-0.132596	-0.998109	0.048892	-0.037250
209	664948529													0.717628	0.041770	0.149999	0.027921	0.127249	-0.991478	-0.047761	-0.990562	-0.128476	-0.998468	0.050942	-0.021580
210	664965196													0.558981	0.602881	0.109577	0.013311	0.119936	-0.992692	-0.051724	-0.991369	-0.120470	-0.998573	0.052950	-0.006993
211	664981863													0.688499	0.990261	-0.306174	-0.001115	0.108222	-0.994126	-0.055449	-0.992604	-0.107994	-0.998461	0.055003	0.007108
212	664998530													0.659506	1.344184	-0.665305	-0.015503	0.094600	-0.995395	-0.058347	-0.993903	-0.093550	-0.998176	0.056628	0.020928
213	665015197													0.174226	1.156172	-0.610862	-0.029442	0.079970	-0.996362	-0.059872	-0.995146	-0.078103	-0.997772	0.057354	0.034087
214	665031864													-0.196518	0.401512	-0.123023	-0.043173	0.065190	-0.996939	-0.060572	-0.996204	-0.062518	-0.997230	0.057687	0.046958
215	665048531													-0.216939	-0.304035	0.371281	-0.057103	0.051232	-0.997053	-0.061350	-0.996975	-0.047714	-0.996482	0.058444	0.060073
216	665065198													-0.135024	-0.526875	0.408893	-0.071895	0.038486	-0.996669	-0.062552	-0.997462	-0.034004	-0.995449	0.059899	0.074120
217	665081865													-0.059986	-0.566394	0.188137	-0.087410	0.027655	-0.995788	-0.063739	-0.997722	-0.022114	-0.994131	0.061538	0.088973
218	665098532													0.007022	-0.280939	0.098392	-0.102120	0.020595	-0.994559	-0.064876	-0.997795	-0.014000	-0.992654	0.063094	0.103231
219	665115199													-0.120121	-0.111227	-0.260972	-0.117205	0.014925	-0.992996	-0.065574	-0.997821	-0.007257	-0.990940	0.064264	0.117929
220	665131866													-0.246845	0.031131	-0.367781	-0.133278	0.010422	-0.991024	-0.065803	-0.997831	-0.001644	-0.988892	0.064993	0.133675
221	665148533													-0.174977	0.092471	-0.455651	-0.150956	0.006543	-0.988519	-0.065919	-0.997819	0.003462	-0.986340	0.065685	0.151058
222	665165200													-0.314400	0.370733	-0.392313	-0.170855	0.002648	-0.985293	-0.066004	-0.997781	0.008763	-0.983083	0.066530	0.170651
223	665181867													-0.769945	0.357318	-0.152560	-0.193777	-0.002958	-0.981041	-0.065985	-0.997692	0.016042	-0.978824	0.067843	0.193135
224	665198534													-1.015645	-0.194946	0.449438	-0.218812	-0.009163	-0.975724	-0.066633	-0.997481	0.024311	-0.973489	0.070335	0.217650
225	665215201													-1.021089	-0.677516	0.770664	-0.242058	-0.012926	-0.970176	-0.069288	-0.997128	0.030572	-0.967785	0.074622	0.240467
226	665231868													-0.827646	-0.718472	0.513420	-0.261366	-0.014461	-0.965131	-0.073367	-0.996698	0.034802	-0.962447	0.079905	0.259442
227	665248535													-0.858591	-0.347534	-0.495337	-0.276843	-0.016635	-0.960771	-0.076829	-0.996266	0.039387	-0.957839	0.084719	0.274531
228	665265202													-1.230993	0.055878	-1.201906	-0.290966	-0.020951	-0.956504	-0.077967	-0.995916	0.045532	-0.953551	0.087824	0.288144
229	665281869													-1.938114	0.071336	-0.926863	-0.305187	-0.026967	-0.951911	-0.077219	-0.995606	0.052962	-0.949157	0.089669	0.301764
230	665298536													-2.548332	0.038650	-0.560866	-0.319593	-0.035562	-0.946887	-0.074933	-0.995217	0.062669	-0.944587	0.090982	0.315400
231	665315203													-2.869986	-0.141118	0.258143	-0.333421	-0.045743	-0.941668	-0.071859	-0.994684	0.073762	-0.940035	0.092262	0.328362
232	665331870													-2.735755	-0.610308	1.218210	-0.345478	-0.056157	-0.936745	-0.068907	-0.993995	0.085002	-0.935893	0.093914	0.339534
233	665348537													-2.462614	-0.765188	2.055744	-0.355072	-0.067374	-0.932408	-0.066418	-0.993061	0.097049	-0.932476	0.096388	0.348133
234	665365204													-2.325890	-0.015671	2.537769	-0.360683	-0.080048	-0.929247	-0.064362	-0.991799	0.110418	-0.930465	0.099634	0.352573
235	665381871													-2.365423	0.830334	2.933683	-0.363145	-0.094649	-0.926913	-0.061026	-0.990275	0.125028	-0.929732	0.101969	0.353837
236	665398538													-2.644654	1.616206	3.006437	-0.360470	-0.108337	-0.926458	-0.055603	-0.988970	0.137282	-0.931112	0.101000	0.350471
237	665415205													-2.817909	2.052064	2.443580	-0.352888	-0.119928	-0.927948	-0.047665	-0.988160	0.145836	-0.934451	0.095694	0.342993
238	665431872													-3.327720	1.807403	2.100774	-0.342384	-0.129979	-0.930526	-0.036818	-0.987768	0.151521	-0.938839	0.086138	0.333410
239	665448539													-3.892784	1.040783	1.821518	-0.328186	-0.139871	-0.934200	-0.023386	-0.987470	0.156062	-0.944324	0.073064	0.320803
240	665465206													-3.500590	1.031502	1.750442	-0.307096	-0.146093	-0.940398	-0.009370	-0.987635	0.156491	-0.951632	0.056869	0.301930
241	665481873													-2.219020	2.609173	0.595793	-0.280099	-0.140892	-0.949576	0.002353	-0.989269	0.146088	-0.959968	0.038685	0.277425
242	665498540													-2.163344	2.911328	0.162214	-0.249904	-0.129656	-0.959551	0.012818	-0.991350	0.130614	-0.968186	0.020342	0.249405
243	665515207													-3.293645	2.279411	-0.497345	-0.215760	-0.111390	-0.970072	0.023642	-0.993777	0.108853	-0.976160	0.000552	0.217050
244	665531874													-3.185871	0.720279	0.232717	-0.179762	-0.094858	-0.979126	0.036527	-0.995297	0.089718	-0.983032	-0.019636	0.182382
245	665548541													-1.045547	-0.233780	1.533860	-0.145916	-0.089722	-0.985220	0.052073	-0.995195	0.082918	-0.987926	-0.039205	0.149887
246	665565208													1.615409	0.056602	2.635403	-0.111600	-0.094603	-0.989240	0.069094	-0.993788	0.087244	-0.991348	-0.058614	0.117444
247	665581875													3.908817	0.504942	3.001987	-0.077456	-0.104018	-0.991555	0.083608	-0.991717	0.097504	-0.993484	-0.075350	0.085511
248	665598542													4.352854	0.453236	2.593185	-0.043064	-0.113710	-0.992580	0.093408	-0.989608	0.109317	-0.994696	-0.088007	0.053238
249	665615209													3.817413	-0.603128	1.902954	-0.009577	-0.122767	-0.992389	0.098420	-0.987732	0.121241	-0.995099	-0.096510	0.021542
250	665631876													2.946939	-2.122655	1.779495	0.024101	-0.130026	-0.991218	0.098400	-0.986382	0.131784	-0.994855	-0.100712	-0.010979
251	665648543													2.625581	-2.992224	1.659097	0.059168	-0.133197	-0.989322	0.094906	-0.985818	0.138401	-0.993726	-0.102081	-0.045688
252	665665210													2.841813	-3.701764	1.901365	0.095205	-0.128917	-0.987075	0.090375	-0.986364	0.137541	-0.991347	-0.102301	-0.082256
253	665681877													2.969587	-4.071970	1.148847	0.132186	-0.119794	-0.983960	0.085682	-0.987574	0.131745	-0.987515	-0.101723	-0.120279
254	665698544													3.500425	-3.693318	0.190821	0.165998	-0.104298	-0.980595	0.083315	-0.989352	0.119333	-0.982600	-0.101508	-0.155541
255	665715211													4.202045	-2.771584	-0.661828	0.198427	-0.085103	-0.976414	0.083642	-0.991119	0.103382	-0.976540	-0.102183	-0.189547
256	665731878													4.397722	-2.224833	-1.388771	0.230471	-0.061533	-0.971132	0.085111	-0.992899	0.083112	-0.969350	-0.101809	-0.223597
257	665748545													4.637604	-2.086593	-2.035614	0.259451	-0.034086	-0.965155	0.086491	-0.994541	0.058374	-0.961876	-0.098623	-0.255086
258	665765212													5.080501	-1.747865	-3.009348	0.285537	-0.000172	-0.958368	0.090134	-0.995563	0.027033	-0.954120	-0.094101	-0.284255
259	665781879													4.840084	-0.589015	-4.056235	0.309020	0.040943	-0.950174	0.098597	-0.995069	-0.010812	-0.945931	-0.090343	-0.311533
260	665798546													3.695245	0.490995	-4.644286	0.327323	0.082532	-0.941301	0.111331	-0.992608	-0.048317	-0.938331	-0.088981	-0.334092
261	665815213													2.706520	1.045439	-4.544261	0.339002	0.117601	-0.933406	0.124429	-0.989045	-0.079419	-0.932521	-0.089220	-0.349921
262	665831880													2.116348	1.588393	-4.007437	0.345309	0.142607	-0.927591	0.133973	-0.985755	-0.101676	-0.928877	-0.089162	-0.359496
263	665848547													1.760932	1.638649	-3.385144	0.348971	0.156005	-0.924057	0.137935	-0.983858	-0.114009	-0.926927	-0.087674	-0.364856
264	665865214													1.279160	1.847634	-2.662059	0.352506	0.158388	-0.922309	0.136350	-0.983748	-0.116826	-0.925823	-0.084575	-0.368373
265	665881881													1.128572	1.604041	-2.146990	0.356417	0.151333	-0.921990	0.128340	-0.985372	-0.112123	-0.925471	-0.078366	-0.370625
266	665898548													1.294225	1.179882	-1.698434	0.359115	0.138929	-0.922895	0.113510	-0.988019	-0.104564	-0.926365	-0.067208	-0.370582
267	665915215													1.750773	0.556516	-1.766637	0.361076	0.125063	-0.924112	0.094233	-0.990787	-0.097267	-0.927763	-0.051961	-0.369534
268	665931882													1.999337	0.282120	-1.995452	0.361594	0.114235	-0.925311	0.074828	-0.992819	-0.093328	-0.929328	-0.035493	-0.367545
269	665948549													1.573607	-0.283571	-1.707115	0.360457	0.108287	-0.926469	0.057775	-0.993923	-0.093693	-0.930985	-0.019755	-0.364523
270	665965216													0.499044	-0.780094	-0.854084	0.359390	0.107949	-0.926923	0.044817	-0.994137	-0.098400	-0.932111	-0.006178	-0.362121
271	665981883													-0.810349	-0.732280	0.235586	0.359291	0.115025	-0.926110	0.037708	-0.993354	-0.108747	-0.932464	0.004150	-0.361240
272	665998550													-2.029230	-0.121390	1.392162	0.359018	0.128496	-0.924443	0.036016	-0.991647	-0.123850	-0.932636	0.011170	-0.360647
273	666015217													-2.946021	1.672979	2.472631	0.358636	0.146997	-0.921831	0.038679	-0.989015	-0.142662	-0.932676	0.015508	-0.360383
274	666031884													-3.587500	3.441188	3.541997	0.358908	0.168306	-0.918073	0.044422	-0.985573	-0.163314	-0.932315	0.017832	-0.361207
275	666048551													-3.752595	2.901199	3.593492	0.360958	0.189290	-0.913170	0.052608	-0.981758	-0.182713	-0.931097	0.017911	-0.364331
276	666065218													-3.176061	1.702285	2.329281	0.364098	0.213551	-0.906548	0.063919	-0.976793	-0.204427	-0.929165	0.016486	-0.369298
277	666081885													-2.104921	2.006292	0.634411	0.362560	0.241194	-0.900209	0.076794	-0.970377	-0.229066	-0.928791	0.013920	-0.370342
278	666098552													-0.180318	2.034443	-0.658705	0.357004	0.264452	-0.895887	0.086321	-0.964324	-0.250256	-0.930106	0.012008	-0.367095
279	666115219													2.239621	2.225269	-1.235827	0.349368	0.283194	-0.893165	0.092749	-0.959003	-0.267790	-0.932384	0.010717	-0.361311
280	666131886													3.397129	5.138150	0.404008	0.338698	0.296137	-0.893077	0.097931	-0.955118	-0.279569	-0.935785	0.007230	-0.352498
281	666148553													3.338080	6.950540	4.662250	0.332660	0.298042	-0.894712	0.102036	-0.954551	-0.280037	-0.937511	0.001864	-0.347952
282	666165220													-2.918774	1.604065	9.291891	0.345076	0.312569	-0.884999	0.115259	-0.949893	-0.290548	-0.931471	-0.001743	-0.363812
283	666181887													-7.904013	-5.957522	3.325429	0.355452	0.320938	-0.877868	0.111281	-0.947054	-0.301174	-0.928047	0.009363	-0.372346
284	666198554													5.191249	2.523666	1.144136	0.323264	0.336955	-0.884286	0.106425	-0.941475	-0.319841	-0.940305	0.009283	-0.340205
285	666215221													8.375352	5.252763	-3.004319	0.326982	0.323062	-0.888096	0.093599	-0.946204	-0.309739	-0.940384	0.018154	-0.339629
286	666231888													4.807716	3.012443	-7.325077	0.328410	0.279320	-0.902290	0.071211	-0.959877	-0.271228	-0.941847	0.024821	-0.335124
287	666248555													4.774075	1.198225	-5.174175	0.311672	0.233774	-0.920983	0.044115	-0.971777	-0.231738	-0.949165	0.031597	-0.313188
288	666265222													4.954894	-1.413350	-3.685178	0.294353	0.190360	-0.936546	0.018913	-0.980930	-0.193438	-0.955510	0.039226	-0.292340
289	666281889													5.594000	-4.277443	-0.611939	0.271712	0.165355	-0.948067	0.002798	-0.985260	-0.171041	-0.962375	0.043822	-0.268170
290	666298556													6.156761	-3.822781	1.629916	0.252279	0.155636	-0.955056	-0.008334	-0.986595	-0.162977	-0.967619	0.049076	-0.247600
291	666315223													4.699814	-1.125331	1.748488	0.235881	0.154829	-0.959368	-0.019799	-0.986256	-0.164037	-0.971580	0.057688	-0.229574
292	666331890													2.847621	0.678736	0.001246	0.221225	0.156747	-0.962543	-0.029074	-0.985500	-0.167168	-0.974789	0.064967	-0.213460
293	666348557													1.856472	0.487767	-0.789697	0.204944	0.156242	-0.966223	-0.034027	-0.985443	-0.166567	-0.978182	0.067014	-0.196644
294	666365224													1.557090	-0.683675	-0.348749	0.185893	0.152719	-0.970629	-0.038542	-0.985954	-0.162511	-0.981814	0.067620	-0.177396
295	666381891													1.438084	-0.794815	-0.495465	0.167344	0.147840	-0.974751	-0.043701	-0.986609	-0.157141	-0.984930	0.068894	-0.158642
296	666398558													1.980514	-1.077436	-0.324578	0.146450	0.143084	-0.978815	-0.049763	-0.987165	-0.151750	-0.987966	0.070932	-0.137450
297	666415225													2.215646	-0.731607	0.229439	0.124509	0.137426	-0.982655	-0.056293	-0.987788	-0.145277	-0.990620	0.073405	-0.115252
298	666431892													1.813652	-0.206660	0.226504	0.103588	0.130121	-0.986072	-0.062972	-0.988558	-0.137065	-0.992625	0.076293	-0.094209
299	666448559													1.318402	0.529780	-0.497920	0.083957	0.120981	-0.989098	-0.068650	-0.989542	-0.126863	-0.994102	0.078553	-0.074774
300	666465226													1.024587	0.446484	-0.621664	0.062957	0.109250	-0.992019	-0.073626	-0.990773	-0.113786	-0.995297	0.080202	-0.054332
301	666481893													0.845897	0.214898	-0.538510	0.040268	0.095854	-0.994581	-0.077652	-0.992077	-0.098756	-0.996167	0.081208	-0.032505
302	666498560													0.812345	-0.187898	-0.284798	0.016170	0.079898	-0.996672	-0.080634	-0.993451	-0.080948	-0.996613	0.081675	-0.009622
303	666515227													1.223701	-0.657038	-0.129234	-0.008417	0.063820	-0.997926	-0.083403	-0.994529	-0.062900	-0.996480	0.082701	0.013694
304	666531894													1.352307	-0.223824	-0.054848	-0.032323	0.048984	-0.998276	-0.087046	-0.995141	-0.046012	-0.995680	0.085409	0.036430
305	666548561													1.181537	0.145261	-0.172612	-0.055518	0.033804	-0.997885	-0.090796	-0.995457	-0.028670	-0.994321	0.089012	0.058335
306	666565228													0.860291	0.387204	-0.258154	-0.078288	0.017943	-0.996769	-0.093726	-0.995542	-0.010560	-0.992515	0.092597	0.079621
307	666581895													0.401496	0.220505	-0.180118	-0.100654	0.002899	-0.994917	-0.095554	-0.995401	0.006767	-0.990322	0.095749	0.100469
308	666598562													0.030653	0.069684	0.215683	-0.122990	-0.009209	-0.992365	-0.096981	-0.995059	0.021253	-0.987658	0.098854	0.121489
309	666615229													-0.351378	0.141491	0.291962	-0.144359	-0.015952	-0.989397	-0.098865	-0.994635	0.030462	-0.984574	0.102214	0.142008
310	666631896													-0.751729	0.210427	0.482059	-0.164606	-0.014907	-0.986247	-0.102183	-0.994248	0.032082	-0.981052	0.106058	0.162136
311	666648563													-1.231837	0.639700	-0.090390	-0.182523	-0.007644	-0.983172	-0.106992	-0.993877	0.027590	-0.977363	0.110228	0.180588
312	666665230													-1.173431	0.613341	-0.345937	-0.200955	-0.003202	-0.979595	-0.110566	-0.993530	0.025929	-0.973341	0.113521	0.199301
313	666681897													-0.251270	0.353621	-0.066860	-0.219169	-0.004288	-0.975678	-0.112272	-0.993237	0.029585	-0.969206	0.116026	0.217205
314	666698564													0.320931	0.601121	0.044227	-0.236948	-0.009641	-0.971474	-0.112589	-0.992941	0.037316	-0.964976	0.118219	0.234190
315	666715231													0.050784	0.880135	0.033116	-0.254952	-0.017159	-0.966801	-0.112063	-0.992581	0.047168	-0.960438	0.120368	0.251137
316	666731898													-0.642876	0.847445	-0.069345	-0.272840	-0.025374	-0.961725	-0.111581	-0.992071	0.057830	-0.955567	0.123088	0.267845
317	666748565													-1.163061	0.452585	-0.087701	-0.290618	-0.034051	-0.956233	-0.111192	-0.991394	0.069097	-0.950356	0.126406	0.284331
318	666765232													-1.690342	-0.126276	0.093904	-0.307834	-0.043812	-0.950431	-0.110502	-0.990533	0.081452	-0.945001	0.130098	0.300078
319	666781899													-2.196571	-0.648804	0.198995	-0.322848	-0.055068	-0.944847	-0.109192	-0.989473	0.094979	-0.940131	0.133833	0.313436
320	666798566													-2.390248	-1.032631	0.371408	-0.334757	-0.066260	-0.939972	-0.107720	-0.988294	0.108030	-0.936127	0.137418	0.323701
321	666815233													-2.291175	-0.962047	0.217267	-0.344206	-0.076178	-0.935799	-0.106340	-0.987126	0.119470	-0.932853	0.140635	0.331674
322	666831900													-2.122342	-0.543980	0.120753	-0.352240	-0.085297	-0.932015	-0.104551	-0.986019	0.129753	-0.930052	0.143147	0.338398
323	666848567													-2.043105	-0.196299	-0.036506	-0.359648	-0.095301	-0.928208	-0.101646	-0.984849	0.140500	-0.927535	0.144879	0.344513
324	666865234													-1.955239	-0.138085	0.438275	-0.367499	-0.106493	-0.923907	-0.097381	-0.983556	0.152103	-0.924911	0.145869	0.351086
325	666881901													-2.087633	-0.134219	1.349423	-0.375334	-0.117733	-0.919382	-0.091950	-0.982278	0.163325	-0.922318	0.145839	0.357857
326	666898568													-2.480355	-0.030564	2.115216	-0.381142	-0.127196	-0.915725	-0.086883	-0.981179	0.172450	-0.920425	0.145289	0.362917
327	666915235													-2.923449	0.748954	2.203179	-0.383323	-0.135512	-0.913619	-0.082482	-0.980203	0.179995	-0.919924	0.144354	0.364557
328	666931902													-3.259877	1.465861	2.103548	-0.381993	-0.142936	-0.913045	-0.077838	-0.979480	0.185902	-0.920881	0.142083	0.363029
329	666948569													-3.787876	1.888536	2.022409	-0.376229	-0.149256	-0.914426	-0.071969	-0.979250	0.189447	-0.923727	0.137086	0.357680
330	666965236													-4.313592	1.969252	1.604514	-0.365214	-0.155194	-0.917896	-0.064051	-0.979480	0.191091	-0.928718	0.128581	0.347779
331	666981903													-4.527159	1.721507	1.240043	-0.349164	-0.162642	-0.922839	-0.052832	-0.979839	0.192677	-0.935571	0.116031	0.333531
332	666998570													-3.481628	2.167330	0.749965	-0.327256	-0.167351	-0.929999	-0.040357	-0.980819	0.190697	-0.944074	0.099939	0.314225
333	667015237													-2.589709	3.742186	-0.087111	-0.300941	-0.165164	-0.939231	-0.028729	-0.982871	0.182043	-0.953210	0.081767	0.291041
334	667031904													-2.833278	4.141715	-1.207290	-0.271581	-0.155605	-0.949753	-0.017443	-0.985885	0.166512	-0.962258	0.061788	0.265033
335	667048571													-4.232037	3.459887	-1.083252	-0.240156	-0.142300	-0.960248	-0.004206	-0.989036	0.147618	-0.970725	0.039490	0.236924
336	667065238													-3.912552	1.248398	0.339059	-0.207772	-0.132657	-0.969140	0.011957	-0.991032	0.133090	-0.978104	0.016064	0.207494
337	667081905													-2.100020	-0.167842	2.135271	-0.176756	-0.133288	-0.975188	0.030450	-0.991054	0.129938	-0.983784	-0.006727	0.179233
338	667098572													0.717054	-0.926543	3.887725	-0.143428	-0.143642	-0.979181	0.050173	-0.989194	0.137762	-0.988388	-0.029370	0.149085
339	667115239													3.539441	-0.448388	4.475983	-0.108820	-0.156067	-0.981734	0.065687	-0.986569	0.149554	-0.991889	-0.048213	0.117610
340	667131906													4.196826	-0.116812	3.375573	-0.074397	-0.168494	-0.982891	0.074396	-0.983814	0.163021	-0.994450	-0.060995	0.085728
341	667148573													3.174386	-1.036945	2.213182	-0.041441	-0.181191	-0.982574	0.077526	-0.981037	0.177638	-0.996129	-0.068814	0.054702
342	667165240													2.852803	-2.897933	2.120648	-0.008126	-0.188831	-0.981976	0.075971	-0.979287	0.187686	-0.997077	-0.073076	0.022303
343	667181907													3.006539	-2.913933	1.853495	0.027110	-0.186951	-0.981995	0.072513	-0.979400	0.188459	-0.996999	-0.076316	-0.012996
344	667198574													3.305173	-1.749915	1.694881	0.065514	-0.178807	-0.981701	0.070339	-0.980539	0.183289	-0.995369	-0.081060	-0.051662
345	667215241													3.119492	-2.266679	1.292510	0.102227	-0.170471	-0.980046	0.068141	-0.981693	0.177865	-0.992425	-0.084964	-0.088740
346	667231908													3.033565	-2.032196	0.376670	0.138261	-0.159832	-0.977414	0.067395	-0.983086	0.170293	-0.988100	-0.089418	-0.125151
347	667248575													3.302829	-2.454833	-0.081155	0.169539	-0.147086	-0.974486	0.068043	-0.984693	0.160465	-0.983172	-0.093512	-0.156935
348	667265242													3.697461	-2.359917	-0.718760	0.198876	-0.131624	-0.971146	0.069153	-0.986585	0.147878	-0.977582	-0.096567	-0.187106
349	667281909													4.682770	-2.642794	-1.539609	0.228564	-0.109284	-0.967376	0.071750	-0.989086	0.128689	-0.970881	-0.098823	-0.218228
350	667298576													5.065012	-2.320517	-2.691906	0.254688	-0.079007	-0.963790	0.076170	-0.991921	0.101441	-0.964019	-0.099247	-0.246613
351	667315243													5.151471	-1.431819	-3.564680	0.276809	-0.042057	-0.960004	0.083539	-0.994206	0.067643	-0.957287	-0.098922	-0.271692
352	667331910													4.688757	-0.347720	-4.270132	0.295423	-0.002070	-0.955364	0.094231	-0.995058	0.031295	-0.950708	-0.099270	-0.293768
353	667348577													3.933011	0.425327	-4.521399	0.309788	0.036717	-0.950096	0.107159	-0.994236	-0.003483	-0.944748	-0.100732	-0.311937
354	667365244													3.126407	1.345063	-4.409605	0.319809	0.070048	-0.944889	0.119168	-0.992318	-0.033231	-0.939958	-0.101973	-0.325699
355	667381911													2.362026	1.649158	-4.162802	0.326442	0.092681	-0.940663	0.126738	-0.990487	-0.053607	-0.936682	-0.101718	-0.335082
356	667398578													1.782364	1.779945	-3.879751	0.331501	0.103832	-0.937724	0.129485	-0.989527	-0.063793	-0.934527	-0.100274	-0.341474
357	667415245													1.515722	1.356483	-3.279085	0.334823	0.104039	-0.936520	0.126871	-0.989813	-0.064601	-0.933701	-0.097187	-0.344611
358	667431912													1.660747	0.976274	-2.631974	0.336044	0.097946	-0.936740	0.118751	-0.991047	-0.061024	-0.934330	-0.090732	-0.344667
359	667448579													1.980109	0.753771	-2.286025	0.336037	0.089519	-0.937585	0.106057	-0.992738	-0.056774	-0.935858	-0.080360	-0.343091
360	667465246													2.158678	0.516112	-2.432515	0.334445	0.081955	-0.938845	0.091049	-0.994361	-0.054367	-0.938007	-0.067298	-0.340021
361	667481913													1.656803	0.597369	-2.196648	0.329651	0.077102	-0.940949	0.076708	-0.995552	-0.054702	-0.940982	-0.054146	-0.334098
362	667498580													0.345274	0.613107	-1.261838	0.322807	0.075380	-0.943458	0.065419	-0.996216	-0.057212	-0.944201	-0.043252	-0.326517
363	667515247													-1.801613	0.980680	0.519459	0.317181	0.073360	-0.945523	0.059148	-0.996593	-0.057481	-0.946519	-0.037694	-0.320440
364	667531914													-3.949394	2.279820	2.660029	0.314816	0.074372	-0.946234	0.059730	-0.996502	-0.058451	-0.947271	-0.038117	-0.318157
365	667548581													-6.629710	3.425946	5.566402	0.315072	0.088448	-0.944937	0.067676	-0.995207	-0.070588	-0.946652	-0.041710	-0.319548
366	667565248													-7.890676	2.500365	6.429003	0.321704	0.117912	-0.939470	0.080317	-0.992038	-0.097007	-0.943428	-0.044248	-0.328613
367	667581915													-5.760129	1.692806	4.152777	0.329127	0.152785	-0.931843	0.095072	-0.987171	-0.128277	-0.939487	-0.046373	-0.339431
368	667598582													-3.293477	1.682756	2.341591	0.333707	0.176856	-0.925938	0.107108	-0.982996	-0.149153	-0.936572	-0.049402	-0.346976
369	667615249													-0.073666	0.904597	0.161098	0.335243	0.191144	-0.922538	0.114443	-0.980213	-0.161507	-0.935155	-0.051434	-0.350485
370	667631916													3.366548	0.356306	-2.306342	0.333593	0.202663	-0.920675	0.119688	-0.977821	-0.171875	-0.935088	-0.052858	-0.350451
371	667648583													4.822503	4.190902	-1.321170	0.322527	0.219638	-0.920725	0.129731	-0.973785	-0.186851	-0.937628	-0.059183	-0.342566
372	667665250													2.168342	8.360813	6.335005	0.317325	0.224540	-0.921350	0.140794	-0.971951	-0.188381	-0.937807	-0.069942	-0.340038
373	667681917													-7.487792	2.217856	10.032400	0.353583	0.217782	-0.909698	0.146783	-0.973389	-0.175978	-0.923815	-0.071305	-0.376140
374	667698584													-0.191809	-6.860016	-1.591435	0.343497	0.225359	-0.911715	0.143700	-0.971964	-0.186110	-0.928095	-0.067086	-0.366250
375	667715251													9.769554	-0.704630	1.573580	0.319173	0.247041	-0.914931	0.143321	-0.966905	-0.211077	-0.936796	-0.063759	-0.344016
376	667731918													7.066037	3.618970	-3.326571	0.321917	0.228125	-0.918873	0.127973	-0.972115	-0.196509	-0.938079	-0.054331	-0.342134
377	667748585													2.047286	3.958025	-6.443008	0.318749	0.189630	-0.928676	0.102254	-0.980944	-0.165206	-0.942307	-0.042301	-0.332065
378	667765252													3.697722	3.048825	-5.552866	0.307890	0.135961	-0.941657	0.072190	-0.990222	-0.119369	-0.948679	-0.031225	-0.314694
379	667781919													5.030662	-2.016958	-4.674157	0.290813	0.079915	-0.953437	0.046555	-0.996507	-0.069325	-0.955646	-0.024227	-0.293518
380	667798586													5.783090	-7.016050	0.341446	0.262693	0.038875	-0.964096	0.028748	-0.999060	-0.032452	-0.964451	-0.019191	-0.263563
381	667815253													5.841391	-9.532115	2.637211	0.238537	0.021598	-0.970893	0.014933	-0.999716	-0.018570	-0.971019	-0.010069	-0.238792
382	667831920													3.763086	-4.458144	2.297461	0.220005	0.034570	-0.974886	0.002851	-0.999390	-0.034795	-0.975495	0.004876	-0.219969
383	667848587													2.010035	0.158110	0.034692	0.203244	0.052370	-0.977727	-0.006018	-0.998483	-0.054733	-0.979110	0.017008	-0.202620
384	667865254													1.469898	0.481312	-0.942917	0.189836	0.066008	-0.979594	-0.007778	-0.997605	-0.068729	-0.981785	0.020666	-0.188868
385	667881921													0.961934	0.262296	-1.582599	0.173434	0.073869	-0.982071	-0.007173	-0.997062	-0.076264	-0.984819	0.020271	-0.172395
386	667898588													1.308166	0.035190	-1.257353	0.153910	0.075878	-0.985167	-0.007136	-0.996936	-0.077899	-0.988059	0.019020	-0.152896
387	667915255													2.173275	-0.604389	-0.248919	0.130173	0.074773	-0.988668	-0.009037	-0.997021	-0.076594	-0.991450	0.018905	-0.129110
388	667931922													2.599555	-1.166732	0.534826	0.104881	0.073817	-0.991741	-0.013200	-0.997050	-0.075608	-0.994397	0.021021	-0.103597
389	667948589													1.836976	-0.761280	0.505114	0.080697	0.072301	-0.994113	-0.019254	-0.997067	-0.074079	-0.996553	0.025119	-0.079068
390	667965256													1.497958	-0.393484	-0.095779	0.057377	0.068582	-0.995994	-0.025957	-0.997198	-0.070160	-0.998015	0.029878	-0.055436
391	667981923													1.556175	-0.163889	-0.482700	0.033894	0.064148	-0.997365	-0.032450	-0.997341	-0.065249	-0.998898	0.034576	-0.031722
392	667998590													1.246708	0.362854	-0.596993	0.008208	0.059243	-0.998210	-0.038901	-0.997469	-0.059519	-0.999209	0.039319	-0.005883
393	668015257													0.996599	0.848086	-0.453642	-0.020751	0.053673	-0.998343	-0.045276	-0.997584	-0.052691	-0.998759	0.044107	0.023131
394	668031924													0.584163	1.521167	-0.379119	-0.050999	0.045220	-0.997674	-0.051282	-0.997775	-0.042603	-0.997381	0.048990	0.053205
395	668048591													0.440256	1.674316	-0.506519	-0.081574	0.032105	-0.996150	-0.055672	-0.998067	-0.027607	-0.995111	0.053206	0.083204
396	668065258													0.380000	1.320168	-0.609089	-0.112326	0.015433	-0.993552	-0.057895	-0.998282	-0.008961	-0.991983	0.056515	0.113026
397	668081925													0.378075	0.270740	-0.579137	-0.144162	-0.001730	-0.989553	-0.057759	-0.998279	0.010160	-0.987867	0.058620	0.143814
398	668098592													0.145966	-0.610088	-0.208590	-0.177021	-0.013955	-0.984108	-0.056844	-0.998085	0.024378	-0.982564	0.060256	0.175889
399	668115259													-0.380833	-1.329899	0.516379	-0.209703	-0.021342	-0.977532	-0.058224	-0.997715	0.034273	-0.976030	0.064103	0.207982
400	668131926													-1.287711	-0.722848	0.386664	-0.241316	-0.024793	-0.970130	-0.061991	-0.997238	0.040906	-0.968465	0.070010	0.239113
401	668148593													-1.697081	0.273865	0.226966	-0.270779	-0.023000	-0.962367	-0.067890	-0.996769	0.042924	-0.960245	0.076958	0.268342
402	668165260													-2.351335	0.863973	-0.499624	-0.294247	-0.013115	-0.955639	-0.075861	-0.996430	0.037033	-0.952714	0.083393	0.292202
403	668181927													-3.004197	0.668850	-1.081365	-0.315646	-0.002442	-0.948874	-0.082559	-0.996134	0.030027	-0.945279	0.087816	0.314224
404	668198594													-3.050982	0.224144	-0.295122	-0.337257	0.001575	-0.941411	-0.085867	-0.995882	0.029095	-0.937489	0.090649	0.336003
405	668215261													-2.754196	0.639806	0.609988	-0.357674	-0.001716	-0.933845	-0.086639	-0.995624	0.035013	-0.929819	0.093431	0.355960
406	668231928													-3.290720	1.291598	0.733971	-0.378095	-0.009365	-0.925720	-0.086817	-0.995184	0.045527	-0.921687	0.097581	0.375460
407	668248595													-4.045634	0.927852	0.738557	-0.396254	-0.020187	-0.917919	-0.087159	-0.994416	0.059495	-0.913994	0.103580	0.392282
408	668265262													-3.843590	-0.560605	0.175600	-0.408955	-0.031561	-0.912009	-0.088054	-0.993374	0.073862	-0.908296	0.110512	0.403466
409	668281929													-3.815266	-1.329674	-0.636912	-0.418454	-0.041734	-0.907278	-0.088456	-0.992322	0.086444	-0.903920	0.116427	0.411550
410	668298596													-4.010686	-0.836543	-1.109701	-0.425380	-0.052902	-0.903467	-0.087344	-0.991230	0.099165	-0.900790	0.121096	0.417029
411	668315263													-4.155582	-0.150930	-0.946736	-0.431023	-0.066187	-0.899910	-0.084400	-0.989977	0.113236	-0.898385	0.124760	0.421117
412	668331930													-4.804377	0.035771	0.425963	-0.435080	-0.080491	-0.896787	-0.079063	-0.988734	0.127101	-0.896914	0.126202	0.423814
413	668348597													-5.569075	0.245959	2.535027	-0.435432	-0.093050	-0.895399	-0.071491	-0.987928	0.137432	-0.897378	0.123855	0.423524
414	668365264													-6.570374	1.178284	3.705816	-0.428364	-0.102772	-0.897743	-0.062797	-0.987723	0.143037	-0.901422	0.117648	0.416651
415	668381931													-7.866407	1.566517	3.182801	-0.412776	-0.110236	-0.904137	-0.054095	-0.987930	0.145148	-0.909225	0.108823	0.401830
416	668398598													-9.167275	0.604763	2.496628	-0.390631	-0.116991	-0.913083	-0.045142	-0.988264	0.145936	-0.919440	0.098225	0.380765
417	668415265													-7.532112	0.116167	2.509773	-0.360862	-0.116394	-0.925327	-0.038106	-0.989513	0.139329	-0.931840	0.085539	0.352642
418	668431932													-4.502377	2.502300	1.562338	-0.323965	-0.099774	-0.940793	-0.033836	-0.992565	0.116916	-0.945464	0.069709	0.318181
419	668448599													-3.743622	4.106469	0.203783	-0.283241	-0.078192	-0.955856	-0.025205	-0.995720	0.088921	-0.958718	0.049278	0.280058
420	668465266													-3.888011	1.763305	0.481136	-0.236966	-0.059062	-0.969721	-0.010933	-0.997925	0.063452	-0.971456	0.025638	0.235829
421	668481933													-1.816883	-0.802539	2.253793	-0.196413	-0.051110	-0.979188	0.006803	-0.998688	0.050764	-0.980498	0.003309	0.196503
422	668498600													1.091774	-0.417087	5.256644	-0.157644	-0.055621	-0.985928	0.030144	-0.998218	0.051494	-0.987036	-0.021602	0.159040
423	668515267													4.622075	0.658683	7.020414	-0.115215	-0.062610	-0.991365	0.053461	-0.996956	0.056750	-0.991901	-0.046461	0.118212
424	668531934													5.468618	1.503550	6.713980	-0.072384	-0.063834	-0.995332	0.067222	-0.995993	0.058988	-0.995109	-0.062638	0.076385
425	668548601													4.941949	-0.870766	5.101350	-0.032436	-0.065661	-0.997315	0.069913	-0.995545	0.063270	-0.997026	-0.067673	0.036882
426	668565268													3.613360	-2.637401	2.971414	0.006951	-0.068303	-0.997640	0.067020	-0.995389	0.068616	-0.997727	-0.067339	-0.002341
427	668581935													3.134332	-3.457865	2.051282	0.047128	-0.059478	-0.997116	0.064282	-0.995976	0.062449	-0.996818	-0.067040	-0.043115
428	668598602													3.436467	-2.509726	1.440750	0.090988	-0.041201	-0.994999	0.063162	-0.996893	0.047055	-0.993847	-0.067128	-0.088103
429	668615269													4.405574	-1.405871	0.658196	0.131891	-0.018177	-0.991098	0.064496	-0.997556	0.026878	-0.989164	-0.067467	-0.130396
430	668631936													5.306885	-1.590702	0.030589	0.169543	0.001910	-0.985521	0.066913	-0.997713	0.009578	-0.983249	-0.067568	-0.169283
431	668648603													5.506862	-0.776820	-1.363899	0.206459	0.022571	-0.978195	0.071141	-0.997434	-0.008000	-0.975866	-0.067938	-0.207535
432	668665270													5.854492	-0.538519	-2.153340	0.241519	0.041354	-0.969515	0.077952	-0.996690	-0.023095	-0.967260	-0.069998	-0.243943
433	668681937													6.129613	-0.829558	-3.384730	0.273420	0.059387	-0.960060	0.085201	-0.995664	-0.037324	-0.958114	-0.071593	-0.277295
434	668698604													5.700754	-0.910779	-5.305180	0.300551	0.079588	-0.950439	0.092319	-0.994261	-0.054064	-0.949287	-0.071495	-0.306174
435	668715271													5.273658	-0.852238	-6.533329	0.321479	0.101514	-0.941460	0.101042	-0.992238	-0.072486	-0.941511	-0.071824	-0.329240
436	668731938													4.954893	-0.632354	-6.987172	0.336136	0.124050	-0.933608	0.111819	-0.989533	-0.091221	-0.935152	-0.073732	-0.346489
437	668748605													4.835778	-0.335314	-7.393989	0.344752	0.148789	-0.926827	0.124406	-0.985890	-0.111996	-0.930413	-0.076692	-0.358398
438	668765272													4.648274	0.353280	-7.435081	0.347653	0.174809	-0.921184	0.136872	-0.981404	-0.134582	-0.927579	-0.079297	-0.365114
439	668781939													4.536755	1.233055	-7.215738	0.346706	0.197483	-0.916949	0.145903	-0.977040	-0.155257	-0.926557	-0.079958	-0.367559
440	668798606													4.275845	1.823722	-6.648518	0.343625	0.211921	-0.914883	0.149104	-0.974160	-0.169649	-0.927195	-0.078117	-0.366344
441	668815273													3.742731	1.948897	-5.543587	0.339389	0.216853	-0.915309	0.145727	-0.973437	-0.176590	-0.929290	-0.073452	-0.361975
442	668831940													2.595400	1.242472	-3.611125	0.334896	0.211455	-0.918222	0.135125	-0.975199	-0.175293	-0.932516	-0.065370	-0.355163
443	668848607													-0.070141	-0.351629	-0.284554	0.330916	0.200698	-0.922071	0.119314	-0.978179	-0.170090	-0.936087	-0.053730	-0.347641
444	668865274													-4.637352	-0.530273	4.197547	0.329018	0.188570	-0.925304	0.100382	-0.981292	-0.164286	-0.938973	-0.038831	-0.341792
445	668881941													-7.111889	1.500476	7.358534	0.333267	0.173610	-0.926710	0.080887	-0.984541	-0.155356	-0.939356	-0.023184	-0.342158
446	668898608													-8.375898	2.777529	5.515263	0.335555	0.166041	-0.927272	0.066883	-0.986059	-0.152365	-0.939643	-0.010892	-0.341982
447	668915275													-9.049526	1.779499	5.521695	0.337060	0.178628	-0.924382	0.068901	-0.983884	-0.165002	-0.938958	-0.008075	-0.343936
448	668931942													-7.195359	1.327607	3.034987	0.341602	0.207538	-0.916644	0.084688	-0.978144	-0.189902	-0.936021	-0.012758	-0.351712
449	668948609													-3.095341	1.184200	1.173361	0.340356	0.243623	-0.908188	0.106008	-0.969637	-0.220379	-0.934302	-0.021268	-0.355847
450	668965276													1.812548	3.298745	2.015675	0.335098	0.276547	-0.900684	0.124934	-0.960554	-0.248448	-0.933863	-0.029272	-0.356430
451	668981943													4.269270	3.616163	-1.521774	0.337521	0.298498	-0.892736	0.136810	-0.953875	-0.267217	-0.931323	-0.031944	-0.362791
452	668998610													3.372510	7.516329	-1.138535	0.326016	0.306920	-0.894155	0.147176	-0.950777	-0.272694	-0.933838	-0.042696	-0.355140
453	669015277													-3.695388	7.554195	8.768772	0.336735	0.297998	-0.893200	0.153025	-0.953308	-0.260361	-0.929082	-0.049010	-0.366613
454	669031944													-3.647022	-0.342357	3.757556	0.359927	0.244904	-0.900263	0.136006	-0.968398	-0.209064	-0.923014	-0.047194	-0.381861
455	669048611													2.373923	-5.903038	4.781785	0.344143	0.239092	-0.907965	0.130819	-0.969812	-0.205794	-0.929759	-0.047957	-0.365032
456	669065278													10.199599	-0.624474	0.949125	0.334022	0.236891	-0.912311	0.122496	-0.970604	-0.207178	-0.934572	-0.042552	-0.353221
457	669081945													7.547168	3.178695	-3.694683	0.330037	0.217731	-0.918514	0.101699	-0.975573	-0.194714	-0.938474	-0.029149	-0.344119
458	669098612													3.823792	3.802909	-6.328056	0.322196	0.178690	-0.929656	0.073028	-0.983789	-0.163786	-0.943852	-0.015120	-0.330022
459	669115279													5.383143	3.268038	-8.131354	0.314283	0.114303	-0.942423	0.038254	-0.993444	-0.107734	-0.948558	-0.002192	-0.316595
460	669131946													4.543602	-1.954907	-4.756668	0.292043	0.062724	-0.954346	0.014919	-0.998024	-0.061030	-0.956289	0.003586	-0.292402
461	669148613													6.131620	-7.147384	0.695624	0.267025	0.022858	-0.963418	0.002085	-0.999730	-0.023142	-0.963687	0.004171	-0.267001
462	669165280													7.257507	-10.621435	3.750220	0.246497	0.005483	-0.969128	-0.008940	-0.999929	-0.007931	-0.969102	0.010619	-0.246430
463	669181947													3.424739	-5.857291	1.604349	0.229708	0.015824	-0.973131	-0.020827	-0.999559	-0.021170	-0.973037	0.025130	-0.229277
464	669198614													2.596685	-1.030960	1.262164	0.213753	0.035038	-0.976259	-0.030868	-0.998615	-0.042598	-0.976400	0.039240	-0.212376
465	669215281													1.938207	0.428336	-0.558405	0.199575	0.051124	-0.978548	-0.036341	-0.997565	-0.059529	-0.979209	0.047442	-0.197231
466	669231948													1.334023	1.073036	-1.353291	0.182376	0.061827	-0.981283	-0.038839	-0.996789	-0.070022	-0.982461	0.050883	-0.179389
467	669248615													0.973220	1.177083	-1.330821	0.162770	0.063943	-0.984590	-0.039993	-0.996650	-0.071338	-0.985853	0.050989	-0.159667
468	669265282													1.565192	0.293089	-0.559008	0.139298	0.057913	-0.988556	-0.042073	-0.997041	-0.064339	-0.989356	0.050553	-0.136449
469	669281949													2.203208	-0.932072	0.331053	0.111399	0.048108	-0.992611	-0.047160	-0.997446	-0.053635	-0.992656	0.052786	-0.108846
470	669298616													1.995326	-1.186407	0.523399	0.083024	0.039834	-0.995751	-0.055353	-0.997474	-0.044518	-0.995009	0.058814	-0.080609
471	669315283													1.152629	-0.452841	0.192266	0.055539	0.032544	-0.997926	-0.065091	-0.997225	-0.036144	-0.996333	0.066963	-0.053266
472	669331950													0.402239	0.383140	-0.000948	0.027795	0.024264	-0.999319	-0.074643	-0.996864	-0.026280	-0.996823	0.075323	-0.025896
473	669348617													-0.042256	0.841886	-0.105123	-0.001105	0.014028	-0.999901	-0.083109	-0.996444	-0.013887	-0.996540	0.083085	0.002267
474	669365284													-0.351711	1.125746	-0.346004	-0.030666	0.002982	-0.999525	-0.089711	-0.995968	-0.000219	-0.995496	0.089662	0.030810
475	669381951													-0.655233	1.292902	-0.792381	-0.059637	-0.009694	-0.998173	-0.094394	-0.995417	0.015307	-0.993747	0.095135	0.058448
476	669398618													-0.660441	1.216324	-0.990615	-0.088913	-0.024930	-0.995727	-0.097104	-0.994708	0.033575	-0.991295	0.099675	0.086022
477	669415285													-0.381461	1.165983	-0.903974	-0.118909	-0.039435	-0.992122	-0.098136	-0.993852	0.051266	-0.988043	0.103459	0.114308
478	669431952													-0.012405	0.991572	-0.720845	-0.151364	-0.053723	-0.987017	-0.097683	-0.992821	0.069019	-0.983640	0.106862	0.145029
479	669448619													0.367448	0.354210	0.244451	-0.185052	-0.068663	-0.980327	-0.098366	-0.991252	0.087996	-0.977793	0.112714	0.176680
480	669465286													0.480777	0.345608	0.083065	-0.217821	-0.084413	-0.972331	-0.100150	-0.989061	0.108301	-0.970837	0.120969	0.206984
481	669481953													-0.653071	0.348381	0.028123	-0.248969	-0.099135	-0.963424	-0.101794	-0.986559	0.127821	-0.963147	0.129895	0.235532
482	669498620													-1.515212	0.258182	-0.395883	-0.275939	-0.110542	-0.954798	-0.102550	-0.984309	0.143596	-0.955689	0.137538	0.260273
483	669515287													-1.207566	0.024451	-0.470318	-0.301029	-0.117825	-0.946308	-0.102925	-0.982526	0.155075	-0.948044	0.144081	0.283642
484	669531954													-0.840295	-0.105738	-0.079062	-0.326167	-0.123597	-0.937197	-0.103199	-0.980835	0.165268	-0.939662	0.150623	0.307161
485	669548621													-1.310494	0.080399	0.307796	-0.351743	-0.131704	-0.926785	-0.102632	-0.978659	0.178028	-0.930453	0.157738	0.330720
486	669565288													-2.761372	-0.084244	0.641096	-0.376484	-0.141841	-0.915500	-0.101846	-0.975883	0.193078	-0.920808	0.165931	0.352959
487	669581955													-4.360371	-0.221735	0.348781	-0.396338	-0.150382	-0.905705	-0.101937	-0.973187	0.206194	-0.912428	0.174047	0.370381
488	669598622													-4.622623	-0.266897	-0.253890	-0.410710	-0.156044	-0.898314	-0.102157	-0.971167	0.215406	-0.906025	0.180238	0.382927
489	669615289													-4.754550	0.262535	-0.503609	-0.421966	-0.159863	-0.892406	-0.101151	-0.969884	0.221571	-0.900951	0.183763	0.393088
490	669631956													-4.722416	1.102601	-0.544106	-0.429826	-0.163627	-0.887962	-0.098492	-0.969077	0.226250	-0.897524	0.184706	0.400418
491	669648623													-4.524034	1.507259	-0.070191	-0.435896	-0.168328	-0.884116	-0.094485	-0.968366	0.230953	-0.895024	0.184207	0.406202
492	669665290													-4.919509	1.602205	1.110158	-0.441714	-0.175943	-0.879735	-0.088312	-0.967292	0.237796	-0.892799	0.182729	0.411728
493	669681957													-5.953235	1.382976	2.709077	-0.445808	-0.186432	-0.875499	-0.080572	-0.965743	0.246676	-0.891495	0.180511	0.415514
494	669698624													-7.480739	1.624048	3.409150	-0.442672	-0.197965	-0.874558	-0.073166	-0.964098	0.255268	-0.893694	0.176988	0.412295
495	669715291													-8.944886	2.132192	2.921604	-0.428908	-0.210969	-0.878368	-0.065645	-0.962497	0.263231	-0.900960	0.170563	0.398973
496	669731958													-8.082780	2.419473	2.720421	-0.404980	-0.221866	-0.886999	-0.057243	-0.962057	0.266776	-0.912532	0.158813	0.376914
497	669748625													-5.892285	4.360215	1.991478	-0.369592	-0.219438	-0.902911	-0.050909	-0.965473	0.255482	-0.927799	0.140390	0.345659
498	669765292													-4.372779	5.753224	-0.639895	-0.326386	-0.206345	-0.922439	-0.042442	-0.971698	0.232382	-0.944283	0.114996	0.308391
499	669781959													-5.464291	3.852899	-0.872093	-0.279935	-0.192672	-0.940486	-0.027549	-0.977638	0.208483	-0.959624	0.084271	0.268367
500	669798626													-4.570005	-0.139806	1.485898	-0.236950	-0.190298	-0.952702	-0.008143	-0.980205	0.197817	-0.971488	0.054630	0.230710
501	669815293													-1.258980	-2.001335	4.390986	-0.198446	-0.203332	-0.958789	0.015991	-0.978785	0.204263	-0.979981	0.025203	0.197487
502	669831960													3.807026	-1.404784	6.650474	-0.157271	-0.222761	-0.962104	0.041412	-0.974858	0.218945	-0.986687	-0.005409	0.162542
503	669848627													6.415325	0.206298	7.657246	-0.113542	-0.233815	-0.965629	0.057024	-0.971845	0.228615	-0.991895	-0.029107	0.123678
504	669865294													5.232478	-0.136066	5.466078	-0.069693	-0.236908	-0.969029	0.059547	-0.970647	0.233021	-0.995790	-0.041463	0.081755
505	669881961													3.330777	-1.789774	3.115603	-0.027471	-0.235491	-0.971488	0.057795	-0.970603	0.233642	-0.997950	-0.049728	0.040273
506	669898628													2.441767	-2.040387	1.946356	0.011955	-0.223621	-0.974603	0.057218	-0.972923	0.223937	-0.998290	-0.058442	0.001164
507	669915295													2.112399	-1.814872	1.675069	0.052267	-0.205919	-0.977172	0.058482	-0.976199	0.208842	-0.996919	-0.068063	-0.038980
508	669931962													3.312110	-1.897654	1.533004	0.092688	-0.189146	-0.977565	0.060259	-0.978926	0.195123	-0.993870	-0.076992	-0.079337
509	669948629													4.910336	-1.834228	0.566771	0.131415	-0.172998	-0.976116	0.062975	-0.981209	0.182380	-0.989325	-0.085438	-0.118051
510	669965296													5.362364	-1.305201	-0.317352	0.167943	-0.161891	-0.972413	0.065938	-0.982369	0.174937	-0.983589	-0.093498	-0.154308
511	669981963													5.353653	-1.433031	-1.620910	0.202618	-0.154941	-0.966922	0.067789	-0.982815	0.171693	-0.976909	-0.100335	-0.188633
512	669998630													5.098523	-2.528202	-2.879999	0.231283	-0.147146	-0.961694	0.070569	-0.983355	0.167432	-0.970324	-0.106590	-0.217049
513	670015297													5.703426	-2.397261	-3.482927	0.257233	-0.135232	-0.956840	0.074923	-0.984388	0.159267	-0.963441	-0.112659	-0.243085
514	670031964													5.933526	-1.985544	-4.976725	0.282475	-0.119269	-0.951831	0.081005	-0.985731	0.147557	-0.955848	-0.118784	-0.268783
515	670048631													5.586482	-1.478563	-6.246909	0.301348	-0.096990	-0.948569	0.090391	-0.987427	0.129679	-0.949220	-0.124821	-0.288792
516	670065298													5.276360	-0.833435	-6.644801	0.312750	-0.071492	-0.947141	0.102325	-0.988824	0.108427	-0.944308	-0.130826	-0.301940
517	670081965													5.302061	-0.446035	-6.632461	0.320350	-0.044517	-0.946253	0.115137	-0.989660	0.085539	-0.940276	-0.136351	-0.311912
518	670098632													4.790458	0.211123	-6.687151	0.327286	-0.020175	-0.944710	0.126398	-0.989852	0.064928	-0.936433	-0.140660	-0.321415
519	670115299													3.920943	0.646114	-6.257992	0.333340	-0.005150	-0.942792	0.132526	-0.989801	0.052264	-0.933446	-0.142366	-0.329258
520	670131966													2.891264	0.643596	-5.466620	0.337941	-0.001921	-0.941165	0.132011	-0.990016	0.049421	-0.931863	-0.140945	-0.334314
521	670148633													1.916619	0.646574	-3.953949	0.338806	-0.010131	-0.940802	0.124536	-0.990661	0.055516	-0.932578	-0.135973	-0.334380
522	670165300													0.644115	-0.398443	-1.669564	0.337348	-0.025214	-0.941042	0.111838	-0.991488	0.066658	-0.934713	-0.127731	-0.331657
523	670181967													-2.096960	-0.118990	1.282623	0.335024	-0.037018	-0.941482	0.097547	-0.992496	0.073736	-0.937146	-0.116542	-0.328899
524	670198634													-4.000553	1.787682	4.074443	0.335497	-0.050900	-0.940665	0.081666	-0.993209	0.082870	-0.938495	-0.104623	-0.329062
525	670215301													-4.387493	3.189906	4.046731	0.337384	-0.068236	-0.938891	0.065118	-0.993289	0.095589	-0.939112	-0.093389	-0.330677
526	670231968													-6.442335	3.238443	3.114898	0.334754	-0.074571	-0.939350	0.055647	-0.993560	0.098706	-0.940661	-0.085314	-0.328449
527	670248635													-6.962695	2.305967	4.894114	0.335777	-0.066867	-0.939565	0.057516	-0.994160	0.091307	-0.940184	-0.084699	-0.329970
528	670265302													-5.411674	1.869244	1.991997	0.343188	-0.048028	-0.938038	0.069469	-0.994659	0.076342	-0.936694	-0.091364	-0.338019
529	670281969													-3.420224	1.707203	-0.481072	0.345527	-0.019633	-0.938203	0.086825	-0.994824	0.052795	-0.934384	-0.099702	-0.342034
530	670298636													0.603537	2.468690	0.404763	0.339598	0.009461	-0.940523	0.101381	-0.994492	0.026602	-0.935091	-0.104385	-0.338687
531	670315303													5.059439	3.305859	0.124526	0.330287	0.038095	-0.943112	0.115345	-0.993325	0.000271	-0.936806	-0.108873	-0.332476
532	670331970													4.345978	6.451170	3.683126	0.325761	0.074696	-0.942497	0.133733	-0.990492	-0.032277	-0.935946	-0.115529	-0.332653
533	670348637													-3.109070	8.801727	9.461166	0.340605	0.062277	-0.938142	0.134654	-0.990749	-0.016881	-0.930514	-0.120574	-0.345840
534	670365304													-1.267182	-0.391329	8.028542	0.342062	0.024028	-0.939370	0.124390	-0.992033	0.019920	-0.931408	-0.123662	-0.342325
535	670381971													6.918320	-4.210511	1.959205	0.333493	0.032267	-0.942200	0.121298	-0.992576	0.008942	-0.934917	-0.117269	-0.334931
536	670398638													7.470015	-2.230335	-3.585709	0.332600	0.017656	-0.942903	0.104384	-0.994370	0.018201	-0.937273	-0.104478	-0.332571
537	670415305													5.368003	-1.110285	-6.922587	0.326704	-0.015361	-0.945002	0.081020	-0.995732	0.044196	-0.941648	-0.091003	-0.324065
538	670431972													5.193287	0.130620	-8.841894	0.320559	-0.072732	-0.944432	0.049158	-0.994427	0.093268	-0.945952	-0.076324	-0.315197
539	670448639													4.982535	-3.021489	-5.420250	0.298164	-0.123846	-0.946446	0.022452	-0.990363	0.136666	-0.954251	-0.061998	-0.292510
540	670465306													5.340137	-7.404100	1.373169	0.267764	-0.161219	-0.949900	0.006997	-0.985550	0.169242	-0.963459	-0.051964	-0.262767
541	670481973													5.475327	-10.814153	4.296408	0.243835	-0.177408	-0.953452	-0.003113	-0.983264	0.182159	-0.969812	-0.041448	-0.240306
542	670498640													3.549979	-7.136872	1.464543	0.230137	-0.161498	-0.959664	-0.010011	-0.986474	0.163609	-0.973107	-0.028045	-0.228641
543	670515307													2.339173	-1.647989	0.745444	0.214476	-0.135271	-0.967317	-0.014864	-0.990701	0.135245	-0.976616	-0.014628	-0.214492
544	670531974													1.675935	1.447859	-0.528549	0.200848	-0.110067	-0.973420	-0.017953	-0.993915	0.108680	-0.979458	-0.004352	-0.201601
545	670548641													1.259456	1.999408	-1.094182	0.184708	-0.091750	-0.978501	-0.017936	-0.995782	0.089984	-0.982630	0.000929	-0.185574
546	670565308													1.157714	1.093838	-0.587186	0.168751	-0.084959	-0.981990	-0.016670	-0.996382	0.083339	-0.985518	0.002306	-0.169557
547	670581975													1.420089	-0.434601	-0.292173	0.151812	-0.085162	-0.984734	-0.017187	-0.996358	0.083518	-0.988260	0.004246	-0.152723
548	670598642													1.864768	-1.151472	-0.277469	0.133132	-0.086797	-0.987290	-0.020267	-0.996188	0.084846	-0.990891	0.008713	-0.134383
549	670615309													1.639511	-0.776475	-0.085778	0.113027	-0.088960	-0.989601	-0.024984	-0.995923	0.086674	-0.993278	0.014928	-0.114789
550	670631976													1.116960	0.579524	0.000985	0.094079	-0.095103	-0.991012	-0.030309	-0.995239	0.092632	-0.995103	0.021322	-0.096513
551	670648643													0.584282	1.377702	-0.090754	0.075998	-0.107003	-0.991350	-0.035696	-0.993880	0.104539	-0.996469	0.027442	-0.079353
552	670665310													0.025689	1.773126	-0.166146	0.058403	-0.125548	-0.990367	-0.040617	-0.991538	0.123301	-0.997466	0.033025	-0.063008
553	670681977													-0.378718	1.236614	-0.024284	0.039514	-0.149258	-0.988008	-0.044861	-0.988049	0.147470	-0.998211	0.038496	-0.045737
554	670698644													-0.528141	0.697070	-0.175151	0.019922	-0.174393	-0.984475	-0.048733	-0.983669	0.173264	-0.998613	0.044525	-0.028095
555	670715311													-0.358486	0.232748	-0.422197	-0.000109	-0.197644	-0.980274	-0.052085	-0.978942	0.197381	-0.998643	0.051080	-0.010187
556	670731978													-0.185842	0.061984	-0.545082	-0.019459	-0.216757	-0.976032	-0.054522	-0.974534	0.217511	-0.998323	0.057448	0.007146
557	670748645													0.051223	-0.273564	-0.114788	-0.036531	-0.232791	-0.971840	-0.055575	-0.970511	0.234562	-0.997786	0.062578	0.022517
558	670765312													0.290012	-0.780454	0.394019	-0.050051	-0.245827	-0.968021	-0.055612	-0.967046	0.248454	-0.997197	0.066269	0.034730
559	670781979													0.140030	-0.961554	0.526338	-0.061075	-0.254832	-0.965055	-0.055511	-0.964496	0.258198	-0.996588	0.069341	0.044760
560	670798646													-0.212881	-0.988528	0.413667	-0.071243	-0.261015	-0.962702	-0.055717	-0.962606	0.265112	-0.995902	0.072526	0.054036
561	670815313													-0.340951	-0.618998	0.239215	-0.080668	-0.265852	-0.960633	-0.056058	-0.961038	0.270671	-0.995163	0.075685	0.062622
562	670831980													-0.268111	0.109488	0.003960	-0.089921	-0.271717	-0.958167	-0.055898	-0.959171	0.277247	-0.994379	0.078489	0.071061
563	670848647													-0.182031	0.862225	-0.130998	-0.099248	-0.279449	-0.955017	-0.054902	-0.956756	0.285664	-0.993547	0.080784	0.079613
564	670865314													-0.279317	1.369499	-0.065353	-0.108017	-0.289974	-0.950919	-0.052959	-0.953479	0.296771	-0.992737	0.082416	0.087635
565	670881981													-0.429745	1.383556	0.243891	-0.116004	-0.303759	-0.945660	-0.050206	-0.949078	0.311015	-0.991979	0.083557	0.094847
566	670898648													-0.618949	0.879432	0.238161	-0.123140	-0.320451	-0.939227	-0.047357	-0.943454	0.328102	-0.991259	0.084881	0.101001
567	670915315													-0.667234	0.116298	0.345839	-0.129330	-0.338039	-0.932204	-0.044574	-0.937167	0.346022	-0.990599	0.086303	0.106136
568	670931982													-0.870607	-0.416350	0.102757	-0.134252	-0.354476	-0.925377	-0.042040	-0.930953	0.362711	-0.990055	0.087598	0.110080
569	670948649													-1.323472	-0.789423	0.025685	-0.139271	-0.368822	-0.919007	-0.039388	-0.925254	0.377299	-0.989471	0.088745	0.114334
570	670965316													-1.270520	-0.968561	0.022378	-0.142506	-0.382778	-0.912783	-0.035990	-0.919582	0.391247	-0.989139	0.088606	0.117270
571	670981983													-0.941607	-1.013859	-0.199591	-0.144946	-0.397857	-0.905925	-0.031378	-0.913286	0.406109	-0.988942	0.087290	0.119893
572	670998650													-0.464015	-0.882558	-0.237357	-0.146794	-0.413221	-0.898721	-0.025451	-0.906685	0.421040	-0.988840	0.084680	0.122579
573	671015317													-0.542740	-0.428098	-0.255174	-0.148359	-0.427715	-0.891655	-0.018436	-0.900280	0.434920	-0.988762	0.080963	0.125680
574	671031984													-1.376334	-0.040766	0.041425	-0.149075	-0.441676	-0.884703	-0.010562	-0.893938	0.448067	-0.988770	0.076140	0.128598
575	671048651													-1.924437	0.286682	0.739787	-0.148581	-0.455627	-0.877683	-0.002297	-0.887373	0.461046	-0.988898	0.070519	0.130800
576	671065318													-1.940178	0.905226	2.408061	-0.147052	-0.468358	-0.871216	0.006539	-0.881232	0.472639	-0.989107	0.063806	0.132650
577	671081985													-1.049992	1.487328	2.477234	-0.142249	-0.476677	-0.867493	0.015158	-0.877352	0.479609	-0.989715	0.055074	0.132028
578	671098652													-0.919523	2.095863	1.850464	-0.137398	-0.485136	-0.863577	0.024255	-0.873232	0.486701	-0.990219	0.045926	0.131748
579	671115319													-1.226409	2.171529	1.857945	-0.131404	-0.493679	-0.859659	0.034121	-0.868917	0.493780	-0.990742	0.035552	0.131024
580	671131986													-0.441419	1.877123	1.728013	-0.122579	-0.502318	-0.855951	0.044452	-0.864368	0.500892	-0.991463	0.023350	0.128282
581	671148653													0.675764	1.547783	1.513049	-0.111930	-0.509786	-0.852989	0.055629	-0.860251	0.506826	-0.992158	0.009278	0.124647
582	671165320													1.276400	1.248649	1.283748	-0.099818	-0.517209	-0.850018	0.068204	-0.855832	0.512737	-0.992665	-0.006794	0.120704
583	671181987													1.466022	0.378206	0.880691	-0.086849	-0.525188	-0.846543	0.081837	-0.850643	0.519335	-0.992854	-0.024175	0.116858
584	671198654													1.497781	-1.215069	0.844150	-0.074439	-0.533475	-0.842534	0.095080	-0.844826	0.526526	-0.992683	-0.040914	0.113611
585	671215321													1.215122	-2.070936	0.264484	-0.063617	-0.541909	-0.838026	0.106187	-0.838636	0.534242	-0.992309	-0.055000	0.110895
586	671231988													0.921441	-2.753207	-0.025770	-0.054994	-0.548128	-0.834584	0.114285	-0.833811	0.540090	-0.991925	-0.065679	0.108497
587	671248655													0.894170	-2.803623	-0.345657	-0.047805	-0.551254	-0.832967	0.119255	-0.831105	0.543178	-0.991712	-0.073369	0.105471
588	671265322													1.205738	-2.351574	-0.676082	-0.041723	-0.552222	-0.832652	0.122129	-0.829948	0.544308	-0.991637	-0.078981	0.102070
589	671281989													1.855765	-1.471344	-0.744180	-0.035901	-0.552358	-0.832834	0.124647	-0.829338	0.544666	-0.991551	-0.084256	0.098624
590	671298656													2.451325	-0.453458	-0.505634	-0.029823	-0.553022	-0.832633	0.127683	-0.828287	0.545562	-0.991367	-0.090043	0.095314
591	671315323													2.649967	0.333636	-0.351592	-0.024566	-0.554803	-0.831619	0.131391	-0.826446	0.547471	-0.991026	-0.095818	0.093198
592	671331990													2.837675	0.913460	-0.197098	-0.019630	-0.558035	-0.829585	0.135257	-0.823599	0.550808	-0.990616	-0.101395	0.091645
593	671348657													3.015083	1.430541	-0.198243	-0.015785	-0.563687	-0.825838	0.139273	-0.819128	0.556446	-0.990128	-0.106234	0.091436
594	671365324													2.775455	1.360478	0.200162	-0.013334	-0.571428	-0.820544	0.143676	-0.813196	0.563976	-0.989535	-0.110373	0.092944
595	671381991													2.511289	1.014360	0.202332	-0.010887	-0.580219	-0.814388	0.148492	-0.806344	0.572503	-0.988854	-0.114697	0.094936
596	671398658													2.232944	0.970702	0.155647	-0.008171	-0.589500	-0.807727	0.153842	-0.798879	0.581486	-0.988062	-0.119511	0.097217
597	671415325													1.762606	0.954428	0.196144	-0.004024	-0.599226	-0.800570	0.159546	-0.790706	0.591041	-0.987182	-0.125349	0.098786
598	671431992													0.796307	0.622880	0.355318	0.001274	-0.608888	-0.793255	0.165315	-0.782213	0.600678	-0.986240	-0.131902	0.099662
599	671448659													0.113574	0.507648	0.596633	0.007589	-0.617478	-0.786552	0.170754	-0.774222	0.609446	-0.985284	-0.138932	0.099561
600	671465326													-0.178491	0.368333	0.588658	0.015754	-0.625783	-0.779838	0.175756	-0.766058	0.618276	-0.984308	-0.146802	0.097917
601	671481993													-0.079930	0.382984	0.484765	0.025473	-0.635207	-0.771921	0.180317	-0.756587	0.628539	-0.983279	-0.155201	0.095266
602	671498660													0.836366	-0.333293	0.192636	0.037295	-0.645065	-0.763217	0.184309	-0.746205	0.639693	-0.982160	-0.164525	0.091062
603	671515327													1.905164	-1.007659	-0.631503	0.047465	-0.651828	-0.756880	0.188463	-0.738281	0.647629	-0.980933	-0.173384	0.087802
604	671531994													1.791949	-0.924132	-1.210777	0.054009	-0.657821	-0.751235	0.192802	-0.731306	0.654232	-0.979750	-0.180174	0.087332
605	671548661													0.608327	-1.113316	-1.869446	0.058344	-0.666576	-0.743150	0.197342	-0.722028	0.663123	-0.978597	-0.185344	0.089418
606	671565328													0.678794	-2.271193	-2.421915	0.057400	-0.672934	-0.737472	0.202511	-0.715485	0.668634	-0.977596	-0.187725	0.095208
607	671581995													1.711483	-2.909871	-2.274138	0.050021	-0.675446	-0.735711	0.207856	-0.713464	0.669153	-0.976880	-0.186394	0.104708
608	671598662													1.705063	-2.325428	-1.908918	0.041565	-0.676103	-0.735634	0.213184	-0.713314	0.667634	-0.976128	-0.184576	0.114485
609	671615329													1.083071	-1.750499	-1.808255	0.031918	-0.676666	-0.735598	0.218431	-0.713460	0.665780	-0.975330	-0.181928	0.125032
610	671631996													0.416767	-1.744939	-1.353054	0.020455	-0.676873	-0.735816	0.223436	-0.714261	0.663255	-0.974504	-0.177974	0.136627
611	671648663													0.111064	-1.749292	-0.760118	0.007326	-0.676142	-0.736735	0.227847	-0.716246	0.659604	-0.973669	-0.172695	0.148809
612	671665330													-0.413231	-1.667336	0.100672	-0.006785	-0.673844	-0.738843	0.231221	-0.719894	0.654438	-0.972878	-0.166396	0.160691
613	671681997													-1.087724	-1.231464	0.991489	-0.021253	-0.669386	-0.742611	0.233241	-0.725603	0.647379	-0.972187	-0.159448	0.171549
614	671698664													-1.565425	-0.709993	1.526163	-0.035708	-0.662537	-0.748178	0.233544	-0.733458	0.638355	-0.971690	-0.151938	0.180921
615	671715331													-1.492045	0.372093	1.812176	-0.049704	-0.652727	-0.755961	0.232464	-0.743669	0.626830	-0.971334	-0.144577	0.188699
616	671731998													-1.206942	1.635610	1.613874	-0.062015	-0.642273	-0.763963	0.230915	-0.753902	0.615070	-0.970996	-0.138267	0.195064
617	671748665													-0.986095	2.754728	1.324184	-0.071505	-0.632695	-0.771093	0.229676	-0.762742	0.604544	-0.970637	-0.133874	0.199855
618	671765332													-0.796654	3.566453	1.162345	-0.077757	-0.624316	-0.777293	0.229467	-0.769928	0.595446	-0.970206	-0.132063	0.203127
619	671781999													-0.948914	3.967092	1.035043	-0.079742	-0.618243	-0.781932	0.230804	-0.774564	0.588880	-0.969727	-0.133515	0.204458
620	671798666													-1.225495	3.864787	0.960144	-0.077455	-0.615936	-0.783980	0.233797	-0.775636	0.586283	-0.969196	-0.137881	0.204080
621	671815333													-1.530944	3.648529	0.914889	-0.071096	-0.617104	-0.783663	0.237941	-0.773463	0.587485	-0.968674	-0.144697	0.201825
622	671832000													-1.903747	3.320179	0.769671	-0.061461	-0.621309	-0.781151	0.242541	-0.768469	0.592139	-0.968192	-0.153067	0.197924
623	671848667													-2.029979	2.789605	0.781800	-0.049774	-0.627043	-0.777393	0.246648	-0.761967	0.598808	-0.967826	-0.161938	0.192585
624	671865334													-2.078747	2.311211	0.704350	-0.036663	-0.633224	-0.773100	0.249934	-0.754844	0.606419	-0.967569	-0.170990	0.185939
625	671882001													-2.176799	1.813093	0.620395	-0.022692	-0.639631	-0.768347	0.252548	-0.747286	0.614640	-0.967318	-0.180097	0.178495
626	671898668													-1.983828	1.396696	0.609431	-0.007719	-0.646110	-0.763206	0.254665	-0.739333	0.623324	-0.966999	-0.189550	0.170249
627	671915335													-1.982380	0.472753	0.783932	0.008195	-0.652745	-0.757533	0.256763	-0.730786	0.632475	-0.966440	-0.199689	0.161612
628	671932002													-2.079868	-0.436857	0.724941	0.025547	-0.659396	-0.751361	0.257375	-0.721931	0.642319	-0.965974	-0.209791	0.151269
629	671948669													-2.234097	-1.512257	0.314353	0.041977	-0.664958	-0.745700	0.255287	-0.714445	0.651458	-0.965954	-0.217714	0.139765
630	671965336													-1.829328	-2.292608	0.109069	0.057666	-0.667384	-0.742478	0.250495	-0.710251	0.657872	-0.966399	-0.223923	0.126219
631	671982003													-1.530613	-2.364946	-0.274186	0.073659	-0.666987	-0.741420	0.244768	-0.708609	0.661787	-0.966780	-0.230222	0.111061
632	671998670													-1.409382	-2.453514	-0.391124	0.090589	-0.663155	-0.742980	0.239087	-0.709747	0.662644	-0.966763	-0.237665	0.094257
633	672015337													-1.270083	-2.402339	-0.291103	0.107916	-0.654125	-0.748648	0.233737	-0.715243	0.658630	-0.966292	-0.246064	0.075706
634	672032004													-0.924265	-2.219236	-0.360436	0.123978	-0.640256	-0.758091	0.228865	-0.724936	0.649683	-0.965531	-0.254047	0.056656
635	672048671													-0.322804	-1.763892	-0.338716	0.139273	-0.623029	-0.769700	0.224088	-0.737283	0.637337	-0.964566	-0.261244	0.036929
636	672065338													0.089566	-1.539338	-0.473353	0.153266	-0.602773	-0.783055	0.219054	-0.751979	0.621726	-0.963600	-0.266821	0.016787
637	672082005													0.204329	-1.217420	-0.685820	0.166815	-0.580668	-0.796867	0.213929	-0.767624	0.604143	-0.962500	-0.271253	-0.003829
638	672098672													0.007813	-1.032914	-0.793354	0.179581	-0.559129	-0.809398	0.208523	-0.782442	0.586773	-0.961389	-0.274152	-0.023921
639	672115339													0.084216	-0.846121	-0.757266	0.190444	-0.539457	-0.820193	0.202743	-0.795860	0.570528	-0.960534	-0.274942	-0.042195
640	672132006													0.169112	-0.688893	-0.612868	0.198980	-0.520698	-0.830229	0.196760	-0.808693	0.554348	-0.960048	-0.273660	-0.058461
641	672148673													0.268079	-0.471611	-0.352201	0.205982	-0.502561	-0.839645	0.190481	-0.821040	0.538154	-0.959838	-0.270786	-0.073391
642	672165340													0.290338	-0.611057	-0.253730	0.211775	-0.483944	-0.849087	0.184146	-0.833473	0.520973	-0.959813	-0.266685	-0.087392
643	672182007													0.542967	-0.574157	-0.134591	0.216700	-0.463548	-0.859165	0.178154	-0.846521	0.501661	-0.959845	-0.261773	-0.100858
644	672198674													0.899681	-0.289411	-0.182942	0.222706	-0.442504	-0.868673	0.172203	-0.859184	0.481819	-0.959556	-0.256892	-0.115144
645	672215341													1.111526	0.292132	-0.231268	0.230442	-0.423419	-0.876135	0.165950	-0.870078	0.464139	-0.958831	-0.252352	-0.130236
646	672232008													0.886713	0.732384	-0.272165	0.239844	-0.408231	-0.880808	0.158980	-0.878526	0.450464	-0.957706	-0.248072	-0.145808
647	672248675													0.379698	0.937076	-0.166365	0.249213	-0.397205	-0.883245	0.151108	-0.884902	0.440586	-0.956587	-0.243264	-0.160508
648	672265342													-0.079787	0.934062	-0.135575	0.257349	-0.389262	-0.884447	0.142179	-0.890060	0.433103	-0.955802	-0.237208	-0.173711
649	672282009													-0.162212	0.723608	-0.339203	0.262766	-0.381808	-0.886102	0.133034	-0.895266	0.425207	-0.955644	-0.229612	-0.184452
650	672298676													0.111091	0.421707	-0.472635	0.265516	-0.372724	-0.889144	0.124521	-0.901265	0.414989	-0.956031	-0.220904	-0.192888
651	672315343													0.615280	0.109659	-0.690450	0.267083	-0.360864	-0.893557	0.117106	-0.908215	0.401787	-0.956532	-0.211951	-0.200310
652	672332010													0.968988	-0.165506	-0.848411	0.268354	-0.344953	-0.899441	0.111123	-0.916370	0.384600	-0.956890	-0.203157	-0.207579
653	672348677													1.298636	-0.601274	-0.995308	0.269855	-0.324707	-0.906501	0.106779	-0.925529	0.363310	-0.956962	-0.194836	-0.215086
654	672365344													1.258519	-0.670599	-1.011000	0.272436	-0.301427	-0.913740	0.103885	-0.934895	0.339380	-0.956549	-0.187383	-0.223385
655	672382011													1.152027	-0.036144	-1.097982	0.275719	-0.277881	-0.920196	0.101404	-0.943553	0.315318	-0.955874	-0.180251	-0.231978
656	672398678													1.047356	0.833366	-1.013477	0.277892	-0.256478	-0.925740	0.098813	-0.950954	0.293125	-0.955517	-0.172932	-0.238919
657	672415345													0.617270	1.644780	-0.717333	0.279239	-0.238924	-0.930022	0.095974	-0.956755	0.274608	-0.955413	-0.165939	-0.244233
658	672432012													-0.379760	2.159058	-0.297617	0.279490	-0.227409	-0.932829	0.092066	-0.960723	0.261794	-0.955724	-0.159051	-0.247576
659	672448679													-0.983130	2.592589	-0.152357	0.279364	-0.221051	-0.934394	0.086773	-0.963345	0.253843	-0.956256	-0.151994	-0.249942
660	672465346													-0.599368	2.570270	-0.048910	0.279477	-0.216765	-0.935364	0.080501	-0.965463	0.247793	-0.956772	-0.144550	-0.252374
661	672482013													-0.564925	2.420072	-0.600085	0.280146	-0.212253	-0.936198	0.073927	-0.967583	0.241490	-0.957107	-0.136863	-0.255373
662	672498680													-1.244955	2.596779	-0.786677	0.278832	-0.208977	-0.937327	0.067335	-0.969380	0.236154	-0.957976	-0.128962	-0.256223
663	672515347													-1.671364	2.409460	-0.669464	0.279668	-0.209508	-0.936959	0.060191	-0.970155	0.234896	-0.958208	-0.122090	-0.258711
664	672532014													-1.876336	1.878212	-0.379356	0.275642	-0.207104	-0.938685	0.054865	-0.971533	0.230463	-0.959693	-0.115026	-0.256433
665	672548681													0.451835	3.422527	4.554106	0.264231	-0.184303	-0.946686	0.058383	-0.976715	0.206445	-0.962691	-0.109820	-0.247318
666	672565348													-0.211845	3.912089	11.072891	0.267801	-0.153673	-0.951140	0.067031	-0.981834	0.177505	-0.961140	-0.111292	-0.252636
667	672582015													-0.567720	-0.417196	5.601951	0.274138	-0.153675	-0.949333	0.069591	-0.981392	0.178960	-0.959169	-0.115125	-0.258342
668	672598682													5.564032	-0.738899	0.787520	0.255814	-0.136592	-0.957028	0.075666	-0.984102	0.160682	-0.963760	-0.113519	-0.241412
669	672615349													7.249845	0.780371	-0.611075	0.252788	-0.115565	-0.960595	0.080437	-0.986894	0.139897	-0.964172	-0.112631	-0.240179
670	672632016													2.345721	0.677511	-3.878882	0.247384	-0.136347	-0.959276	0.072230	-0.984699	0.158587	-0.966221	-0.108520	-0.233751
671	672648683													4.545660	1.849770	-4.306663	0.239901	-0.182440	-0.953500	0.054690	-0.978083	0.200903	-0.969256	-0.100344	-0.224666
672	672665350													4.959521	0.215538	-4.514971	0.228145	-0.242767	-0.942875	0.030420	-0.966165	0.256124	-0.973152	-0.087115	-0.213041
673	672682017													2.923712	-3.142082	-1.696879	0.201794	-0.293139	-0.934531	0.006989	-0.953705	0.300662	-0.979403	-0.067204	-0.190403
674	672698684													2.202703	-5.827644	1.213567	0.175987	-0.333906	-0.926032	-0.014057	-0.941471	0.336802	-0.984292	-0.046255	-0.170380
675	672715351													1.184950	-5.705003	1.714294	0.157918	-0.350996	-0.922965	-0.027340	-0.935889	0.351233	-0.987074	-0.030233	-0.157390
676	672732018													1.296850	-2.546225	0.830463	0.144114	-0.348517	-0.926157	-0.032324	-0.937086	0.347600	-0.989033	-0.020157	-0.146313
677	672748685													1.116099	-1.078967	0.325769	0.132298	-0.339401	-0.931292	-0.033321	-0.940542	0.338039	-0.990650	-0.013691	-0.135741
678	672765352													0.495483	-0.175054	-0.246566	0.120946	-0.333370	-0.935006	-0.034908	-0.942766	0.331622	-0.992045	-0.007469	-0.125661
679	672782019													0.481079	-0.294374	-0.249395	0.105297	-0.333245	-0.936942	-0.038990	-0.942839	0.330960	-0.993676	0.001682	-0.112271
680	672798686													0.349880	-0.133340	0.400830	0.088861	-0.338305	-0.936832	-0.045054	-0.940955	0.335520	-0.995024	0.012394	-0.098857
681	672815353													0.059666	0.020253	0.282187	0.072998	-0.347435	-0.934858	-0.051247	-0.937427	0.344389	-0.996015	0.022769	-0.086235
682	672832020													-0.361913	0.215845	0.281085	0.059188	-0.358203	-0.931766	-0.055600	-0.933136	0.355198	-0.996697	0.030783	-0.075147
683	672848687													-0.570423	0.003035	0.338240	0.048396	-0.368416	-0.928401	-0.057352	-0.928981	0.365656	-0.997180	0.035549	-0.066088
684	672865354													-0.598695	0.185962	0.022046	0.039247	-0.375983	-0.925795	-0.057317	-0.925830	0.373568	-0.997584	0.038402	-0.057886
685	672882021													-0.601954	-0.011090	0.073874	0.030225	-0.382750	-0.923357	-0.056461	-0.922958	0.380736	-0.997947	0.040626	-0.049507
686	672898688													-0.575237	-0.517617	0.284372	0.020872	-0.390162	-0.920510	-0.056616	-0.919694	0.388532	-0.998178	0.044006	-0.041286
687	672915355													0.018533	-0.760407	0.214312	0.011778	-0.397270	-0.917626	-0.058145	-0.916409	0.395997	-0.998239	0.048691	-0.033893
688	672932022													0.228746	-0.330213	-0.054055	0.002371	-0.404016	-0.914749	-0.060474	-0.913135	0.403147	-0.998167	0.054363	-0.026598
689	672948689													0.394063	0.122095	-0.090769	-0.006986	-0.410697	-0.911745	-0.062323	-0.909816	0.410305	-0.998032	0.059689	-0.019240
690	672965356													0.542339	0.388092	-0.156012	-0.016168	-0.416826	-0.908842	-0.062833	-0.906741	0.416980	-0.997893	0.063846	-0.011530
691	672982023													0.445501	0.217190	-0.123532	-0.025404	-0.422663	-0.905931	-0.062316	-0.903791	0.423412	-0.997733	0.067210	-0.003379
692	672998690													0.126496	-0.061781	-0.042328	-0.034422	-0.427681	-0.903274	-0.061476	-0.901192	0.429038	-0.997515	0.070298	0.004729
693	673015357													-0.100829	-0.293609	0.345521	-0.043505	-0.430914	-0.901344	-0.060770	-0.899386	0.432911	-0.997203	0.073609	0.012941
694	673032024													0.000888	-0.432837	0.511166	-0.052230	-0.432248	-0.900241	-0.060512	-0.898445	0.434897	-0.996800	0.077190	0.020769
695	673048691													0.049556	-0.291294	0.353607	-0.060644	-0.432615	-0.899537	-0.060585	-0.897939	0.435931	-0.996319	0.080935	0.028245
696	673065358													0.024050	-0.040406	0.060563	-0.068251	-0.432513	-0.899041	-0.060693	-0.897673	0.436462	-0.995820	0.084354	0.035016
697	673082025													-0.047713	0.057323	-0.117084	-0.075524	-0.432078	-0.898668	-0.060678	-0.897581	0.436654	-0.995296	0.087507	0.041571
698	673098692													-0.026505	0.058692	0.087508	-0.082420	-0.431896	-0.898149	-0.060377	-0.897396	0.437075	-0.994767	0.090251	0.047887
699	673115359													0.160278	0.208610	0.037155	-0.088798	-0.433011	-0.897004	-0.059886	-0.896612	0.438750	-0.994248	0.092678	0.053686
700	673132026													-0.028873	0.463096	-0.015210	-0.095836	-0.435543	-0.895052	-0.059019	-0.895122	0.441897	-0.993646	0.095174	0.060080
701	673148693													-0.310431	0.489272	0.069087	-0.102955	-0.439318	-0.892413	-0.057654	-0.893036	0.446276	-0.993014	0.097397	0.066614
702	673165360													-0.294108	0.326077	-0.005543	-0.110572	-0.443960	-0.889198	-0.056033	-0.890477	0.451566	-0.992287	0.099755	0.073585
703	673182027													-0.109757	0.227281	0.094922	-0.118667	-0.449698	-0.885263	-0.054230	-0.887296	0.458000	-0.991452	0.102357	0.080905
704	673198694													0.093050	0.304373	0.193055	-0.126731	-0.456437	-0.880684	-0.052411	-0.883521	0.465450	-0.990552	0.105145	0.088047
705	673215361													-0.016821	0.564765	0.119222	-0.134959	-0.464561	-0.875197	-0.050470	-0.878908	0.474314	-0.989565	0.108184	0.095171
706	673232028													-0.240551	0.357275	0.302558	-0.143867	-0.473391	-0.869025	-0.048358	-0.873748	0.483969	-0.988415	0.111651	0.102811
707	673248695													-0.548420	0.270948	0.321012	-0.152104	-0.481991	-0.862872	-0.046680	-0.868553	0.493393	-0.987261	0.115326	0.109611
708	673265362													-0.800285	0.278655	-0.055487	-0.159490	-0.489815	-0.857114	-0.045383	-0.863672	0.502008	-0.986156	0.118963	0.115518
709	673282029													-1.091369	0.404980	-0.214726	-0.166793	-0.496564	-0.851824	-0.043940	-0.859324	0.509540	-0.985012	0.122417	0.121510
710	673298696													-1.441361	0.492961	-0.402662	-0.173643	-0.503327	-0.846469	-0.041690	-0.854999	0.516951	-0.983926	0.125054	0.127481
711	673315363													-1.682193	0.357307	-0.448225	-0.180711	-0.510420	-0.840723	-0.038505	-0.850469	0.524614	-0.982782	0.127175	0.134035
712	673332030													-1.974671	0.195499	-0.276529	-0.187689	-0.518026	-0.834519	-0.034453	-0.845623	0.532668	-0.981624	0.128728	0.140866
713	673348697													-1.761565	-0.094270	-0.074660	-0.193799	-0.526705	-0.827661	-0.029421	-0.840156	0.541546	-0.980600	0.129302	0.147326
714	673365364													-0.859988	-0.545795	-0.053930	-0.199681	-0.537033	-0.819587	-0.023669	-0.833544	0.551946	-0.979575	0.129612	0.153732
715	673382031													-0.440734	-0.822250	-0.160955	-0.206789	-0.547481	-0.810865	-0.017635	-0.826559	0.562574	-0.978227	0.130634	0.161268
716	673398698													-0.781692	-0.939770	0.477015	-0.215313	-0.555865	-0.802904	-0.011495	-0.820689	0.571260	-0.976477	0.132229	0.170315
717	673415365													-0.895741	-0.978465	1.539468	-0.223492	-0.561542	-0.796694	-0.005799	-0.816588	0.577191	-0.974689	0.133617	0.179245
718	673432032													-0.418700	-0.712387	1.441573	-0.228459	-0.566063	-0.792073	-0.001051	-0.813446	0.581640	-0.973553	0.133714	0.185244
719	673448699													0.280521	0.083661	0.883137	-0.231960	-0.572598	-0.786337	0.003927	-0.808931	0.587891	-0.972717	0.133280	0.189888
720	673465366													0.824288	1.036637	0.749700	-0.233497	-0.581931	-0.778996	0.010529	-0.802608	0.596414	-0.972300	0.131059	0.193534
721	673482033													1.187235	1.663390	0.649401	-0.232778	-0.593211	-0.770659	0.020137	-0.795197	0.606017	-0.972321	0.125549	0.197050
722	673498700													0.885688	1.873722	1.005220	-0.230753	-0.604417	-0.762517	0.032310	-0.787994	0.614834	-0.972476	0.117238	0.201360
723	673515367													0.082349	1.429538	1.329406	-0.226553	-0.613917	-0.756161	0.044481	-0.782058	0.621616	-0.972983	0.107194	0.204485
724	673532034													-0.418004	1.311733	1.056827	-0.219628	-0.619367	-0.753756	0.054721	-0.779226	0.624350	-0.974048	0.095878	0.205032
725	673548701													-0.990746	1.260098	0.924364	-0.210306	-0.623761	-0.752791	0.064743	-0.777207	0.625905	-0.975490	0.082894	0.203835
726	673565368													-1.342929	1.255466	0.709089	-0.197449	-0.626290	-0.754172	0.075122	-0.776721	0.625348	-0.977431	0.066820	0.200411
727	673582035													-1.427752	1.314110	0.498472	-0.181789	-0.625488	-0.758760	0.085412	-0.778745	0.621499	-0.979621	0.048174	0.194992
728	673598702													-0.561960	1.157140	0.341504	-0.164441	-0.622658	-0.765020	0.095655	-0.781989	0.615908	-0.981738	0.028102	0.188151
729	673615369													0.307108	1.200476	0.343696	-0.147500	-0.620392	-0.770297	0.106468	-0.784249	0.611243	-0.983315	0.008146	0.181729
730	673632036													0.784906	1.466342	0.364861	-0.130499	-0.618263	-0.775062	0.118034	-0.785876	0.607015	-0.984397	-0.012269	0.175532
731	673648703													0.915301	1.745613	0.520325	-0.112473	-0.616211	-0.779509	0.130324	-0.786858	0.603216	-0.985071	-0.033744	0.168807
732	673665370													1.231509	1.133139	0.744278	-0.093277	-0.618428	-0.780286	0.143137	-0.783891	0.604175	-0.985297	-0.055332	0.161639
733	673682037													2.295225	-0.013868	0.986142	-0.074493	-0.629040	-0.773795	0.155329	-0.773800	0.614090	-0.985050	-0.074448	0.155351
734	673698704													3.181817	-0.763612	0.674689	-0.058425	-0.644969	-0.761972	0.166040	-0.758923	0.629656	-0.984387	-0.089730	0.151431
735	673715371													2.642461	-1.063444	0.500616	-0.045333	-0.662520	-0.747671	0.174696	-0.742165	0.647049	-0.983578	-0.101282	0.149385
736	673732038													1.969849	-1.665082	0.134557	-0.034606	-0.682971	-0.729625	0.180863	-0.722288	0.667524	-0.982899	-0.108862	0.148520
737	673748705													1.680967	-2.669898	-0.163227	-0.025970	-0.704160	-0.709567	0.184594	-0.700978	0.688880	-0.982472	-0.113092	0.148188
738	673765372													1.669881	-3.502999	-0.224335	-0.017655	-0.721728	-0.691951	0.186843	-0.682250	0.706842	-0.982231	-0.116807	0.146895
739	673782039													1.940637	-3.903011	-0.306064	-0.008643	-0.736319	-0.676579	0.187767	-0.665764	0.722151	-0.982176	-0.120797	0.144010
740	673798706													2.150992	-4.109645	-0.330836	0.001316	-0.748869	-0.662717	0.187641	-0.650761	0.735732	-0.982237	-0.125321	0.139662
741	673815373													2.344073	-3.768769	-0.687690	0.011329	-0.759926	-0.649911	0.186572	-0.636933	0.748002	-0.982376	-0.129729	0.134565
742	673832040													2.235394	-3.091053	-0.879229	0.018074	-0.770243	-0.637495	0.185050	-0.624007	0.759192	-0.982563	-0.131690	0.131255
743	673848707													1.803739	-2.523215	-0.937446	0.021182	-0.780578	-0.624699	0.183312	-0.611214	0.769944	-0.982827	-0.130824	0.130142
744	673865374													1.498805	-2.349825	-1.003710	0.021375	-0.791174	-0.611217	0.181252	-0.598159	0.780611	-0.983204	-0.127470	0.130616
745	673882041													1.379598	-2.192131	-0.839804	0.019502	-0.800679	-0.598777	0.178869	-0.586434	0.790000	-0.983680	-0.122509	0.131780
746	673898708													1.284313	-2.141048	-0.691531	0.016477	-0.808487	-0.588284	0.176148	-0.576814	0.797657	-0.984226	-0.116768	0.132909
747	673915375													1.274457	-2.046132	-0.489509	0.012398	-0.814680	-0.579778	0.173122	-0.569317	0.803683	-0.984822	-0.110336	0.133980
748	673932042													1.407144	-1.688367	-0.281322	0.007443	-0.820191	-0.572041	0.169794	-0.562713	0.809027	-0.985451	-0.103151	0.135075
749	673948709													1.484232	-1.241197	-0.318049	0.002338	-0.825828	-0.563918	0.166289	-0.555747	0.814551	-0.986074	-0.095678	0.136026
750	673965376													1.461476	-0.761157	-0.408876	-0.003218	-0.831811	-0.555050	0.162721	-0.548091	0.820438	-0.986667	-0.087678	0.137117
751	673982043													1.548423	-0.202296	-0.463728	-0.008979	-0.838291	-0.545149	0.159738	-0.539373	0.826777	-0.987119	-0.079658	0.138750
752	673998710													1.326100	0.074189	-0.469363	-0.014737	-0.845763	-0.533355	0.157657	-0.528706	0.834035	-0.987384	-0.071796	0.141132
753	674015377													0.917631	0.353899	-0.311535	-0.020218	-0.853737	-0.520312	0.156346	-0.516715	0.841761	-0.987495	-0.064330	0.143926
754	674032044													0.530658	0.563594	-0.274738	-0.025845	-0.862000	-0.506250	0.155636	-0.503713	0.849736	-0.987476	-0.056829	0.147177
755	674048711													0.367828	0.774777	-0.189801	-0.032171	-0.870541	-0.491043	0.155435	-0.489677	0.857937	-0.987322	-0.048724	0.151066
756	674065378													0.152624	0.942766	-0.110971	-0.038553	-0.879366	-0.474583	0.155552	-0.474428	0.866442	-0.987075	-0.040418	0.155078
757	674082045													-0.250270	0.909248	0.122030	-0.044553	-0.888238	-0.457219	0.155492	-0.458261	0.875111	-0.986832	-0.032105	0.158531
758	674098712													-0.437837	0.885832	0.515848	-0.050003	-0.896737	-0.439731	0.155043	-0.441914	0.883557	-0.986641	-0.023997	0.161130
759	674115379													-0.404198	1.071424	0.599926	-0.055359	-0.904752	-0.422325	0.154642	-0.425639	0.891581	-0.986418	-0.015952	0.163476
760	674132046													-0.252049	1.297583	0.486115	-0.061006	-0.912427	-0.404667	0.154753	-0.409166	0.899241	-0.986068	-0.007764	0.166162
761	674148713													0.004981	1.330127	0.425758	-0.066517	-0.919986	-0.386265	0.155670	-0.391951	0.906720	-0.985567	0.000183	0.169286
762	674165380													0.362585	1.253706	0.443561	-0.071352	-0.927611	-0.366669	0.157619	-0.373473	0.914152	-0.984919	0.007433	0.172857
763	674182047													0.631282	1.125550	0.462568	-0.075597	-0.935148	-0.346098	0.160779	-0.353981	0.921329	-0.984091	0.014005	0.177112
764	674198714													0.760181	1.019734	0.393349	-0.079109	-0.942471	-0.324791	0.164976	-0.333698	0.928132	-0.983120	0.019841	0.181883
765	674215381													0.936312	0.984132	0.437612	-0.081970	-0.949692	-0.302267	0.170030	-0.312167	0.934688	-0.982024	0.025222	0.187065
766	674232048													0.854847	0.993123	0.598413	-0.083483	-0.956943	-0.278012	0.176135	-0.288763	0.941059	-0.980820	0.029595	0.192658
767	674248715													0.422639	1.164582	0.381596	-0.082725	-0.964062	-0.252470	0.183302	-0.263735	0.947019	-0.979570	0.032064	0.198532
768	674265382													0.382066	0.345162	0.395703	-0.081244	-0.970326	-0.227744	0.192079	-0.239459	0.951717	-0.978011	0.033577	0.205834
769	674282049													0.535326	0.333294	0.334036	-0.081272	-0.974056	-0.211208	0.201655	-0.223597	0.953593	-0.976079	0.034910	0.214595
770	674298716													0.950349	0.770919	-0.382734	-0.082002	-0.975956	-0.201954	0.211325	-0.215055	0.953464	-0.973970	0.035508	0.223879
771	674315383													1.304474	0.595430	-0.259336	-0.084592	-0.976730	-0.197088	0.220910	-0.211258	0.952139	-0.971619	0.037004	0.233640
772	674332050													1.208230	-0.110586	0.472414	-0.087316	-0.978379	-0.187484	0.230164	-0.202924	0.951760	-0.969227	0.039951	0.242906
773	674348717													0.975192	-0.271333	0.411495	-0.087345	-0.981703	-0.169203	0.237459	-0.185474	0.953526	-0.967463	0.043107	0.249315
774	674365384													1.031567	-0.462201	0.223139	-0.085372	-0.985794	-0.144643	0.243737	-0.161426	0.956313	-0.966077	0.046388	0.254056
775	674382051													1.069740	-0.684015	0.116782	-0.082973	-0.989578	-0.117692	0.249711	-0.134977	0.958867	-0.964759	0.050171	0.258308
776	674398718													1.025239	-0.759569	0.149344	-0.080616	-0.992726	-0.089418	0.256270	-0.107337	0.960627	-0.963238	0.054527	0.263059
777	674415385													0.607766	-0.217172	0.275334	-0.077796	-0.995110	-0.060857	0.264311	-0.079444	0.961160	-0.961295	0.058690	0.269199
778	674432052													-0.145621	0.340402	0.159200	-0.072549	-0.996860	-0.031716	0.272552	-0.050405	0.960820	-0.959402	0.061062	0.275353
779	674448719													-0.586032	-0.065587	-0.169924	-0.066717	-0.997772	-0.000318	0.279832	-0.019017	0.959861	-0.957728	0.063950	0.280478
780	674465386													-0.807629	-0.356569	-0.090505	-0.062327	-0.997581	0.030775	0.286325	0.011666	0.958062	-0.956103	0.068524	0.284905
781	674482053													-1.037087	-0.487661	0.210875	-0.059401	-0.996567	0.057664	0.292441	0.037858	0.955534	-0.954437	0.073623	0.289188
782	674498720													-0.863557	-0.356364	0.056700	-0.057632	-0.995073	0.080674	0.297480	0.060021	0.952839	-0.952987	0.078913	0.292556
783	674515387													-0.466282	-0.316887	-0.006887	-0.056823	-0.993121	0.102378	0.301150	0.080718	0.950154	-0.951882	0.084822	0.294492
784	674532054													-0.229599	0.091382	-0.033895	-0.055207	-0.990773	0.123780	0.303593	0.101443	0.947386	-0.951201	0.089881	0.295191
785	674548721													-0.378373	0.893939	-0.176191	-0.051539	-0.987996	0.145627	0.304744	0.123307	0.944419	-0.951039	0.093053	0.294731
786	674565388													-0.643418	1.601750	-0.200550	-0.046078	-0.984637	0.168427	0.303916	0.146795	0.941322	-0.951584	0.094562	0.292482
787	674582055													-0.732454	1.756190	-0.297802	-0.038885	-0.980403	0.193126	0.300796	0.172823	0.937899	-0.952895	0.094562	0.288181
788	674598722													-1.128709	1.682060	-0.537251	-0.030976	-0.975305	0.218678	0.295084	0.200108	0.934282	-0.954969	0.093468	0.281598
789	674615389													-1.144755	1.418154	-0.817186	-0.024138	-0.969621	0.243419	0.287103	0.226510	0.930734	-0.957595	0.092352	0.272914
790	674632056													-1.337209	1.281872	-1.204466	-0.019217	-0.963431	0.267267	0.277499	0.251674	0.927176	-0.960534	0.091984	0.262514
791	674648723													-0.790312	0.627297	-1.149034	-0.016869	-0.957367	0.288380	0.266663	0.273667	0.924120	-0.963642	0.092489	0.250677
792	674665390													-0.075585	0.236550	-0.194189	-0.012745	-0.952320	0.304833	0.254839	0.291698	0.921938	-0.966899	0.089433	0.238971
793	674682057													0.361063	1.125328	0.326450	-0.006374	-0.949350	0.314157	0.242063	0.303356	0.921619	-0.970240	0.081920	0.227869
794	674698724													0.460672	1.218749	-0.226762	0.001088	-0.947123	0.320870	0.225495	0.312839	0.922651	-0.974244	0.071351	0.213911
795	674715391													0.731331	0.139211	-0.673750	0.001982	-0.944577	0.328284	0.205964	0.321632	0.924192	-0.978558	0.065783	0.195187
796	674732058													2.038133	-1.722870	0.312593	-0.005025	-0.940496	0.339768	0.188983	0.332756	0.923882	-0.981967	0.068853	0.176066
797	674748725													2.334842	-2.386122	1.944989	-0.008630	-0.937778	0.347129	0.177810	0.340171	0.923400	-0.984027	0.069692	0.163811
798	674765392													2.144578	-0.251679	1.761151	-0.002088	-0.937662	0.347542	0.170817	0.342101	0.924007	-0.985301	0.061296	0.159454
799	674782059													1.167576	0.182530	0.674345	0.000323	-0.934510	0.355937	0.167221	0.350975	0.921332	-0.985919	0.059222	0.156383
800	674798726													-0.531505	0.119535	0.942867	-0.004737	-0.930232	0.366940	0.164172	0.361242	0.917906	-0.986420	0.064590	0.151007
801	674815393													-2.381566	-0.761731	1.447849	-0.012259	-0.926614	0.375814	0.157839	0.369337	0.915793	-0.987389	0.070544	0.141729
802	674832060													-3.672131	-1.175601	-0.256190	-0.017591	-0.920981	0.389209	0.144562	0.382836	0.912435	-0.989339	0.072316	0.126404
803	674848727													-4.001019	0.147550	-1.247353	-0.025048	-0.917269	0.397479	0.125127	0.391601	0.911588	-0.991825	0.072569	0.104966
804	674865394													-2.660199	0.673692	-0.796580	-0.032333	-0.917105	0.397331	0.105282	0.392202	0.913834	-0.993917	0.071379	0.083874
805	674882061													-0.840290	0.052918	-0.394945	-0.037915	-0.920373	0.389200	0.089121	0.384814	0.918682	-0.995299	0.069518	0.067435
806	674898728													0.948411	0.169651	0.025512	-0.041694	-0.923686	0.380876	0.077904	0.377042	0.922914	-0.996089	0.068152	0.056239
807	674915395													1.387283	0.687348	0.641299	-0.041855	-0.924686	0.378424	0.070561	0.375075	0.924305	-0.996629	0.065389	0.049548
808	674932062													0.835260	1.140239	0.567319	-0.039984	-0.923244	0.382127	0.063581	0.379307	0.923084	-0.997175	0.061205	0.043534
809	674948729													-0.211074	0.925234	0.325054	-0.037569	-0.920674	0.388519	0.055447	0.386274	0.920716	-0.997755	0.056132	0.036536
810	674965396													-0.737427	0.683029	0.266271	-0.035442	-0.918953	0.392772	0.046675	0.391068	0.919178	-0.998281	0.050910	0.029032
811	674982063													-0.396445	0.133616	0.471354	-0.034042	-0.919092	0.392570	0.037899	0.391328	0.919470	-0.998702	0.046179	0.021511
812	674998730													0.226791	-0.400536	0.402709	-0.032385	-0.918901	0.393157	0.029817	0.392300	0.919354	-0.999031	0.041496	0.014694
813	675015397													0.205097	-0.667681	0.227198	-0.030692	-0.915811	0.400436	0.022262	0.399899	0.916289	-0.999281	0.037038	0.008114
814	675032064													-0.618847	-0.869636	-0.017318	-0.030400	-0.909424	0.414757	0.014790	0.414494	0.909932	-0.999428	0.033796	0.000850
815	675048731													-1.370308	-0.936236	-0.143857	-0.032166	-0.900375	0.433924	0.007590	0.433917	0.900921	-0.999454	0.032272	-0.007123
816	675065398													-1.821292	-0.762938	-0.123901	-0.036016	-0.889375	0.455758	0.000452	0.456039	0.889960	-0.999351	0.032259	-0.016023
817	675082065													-1.777688	-0.499173	-0.040949	-0.040960	-0.878612	0.475777	-0.006452	0.476400	0.879205	-0.999140	0.032942	-0.025182
818	675098732													-1.385107	-0.043764	-0.071729	-0.046843	-0.868979	0.492627	-0.012747	0.493648	0.869568	-0.998821	0.034454	-0.034201
819	675115399													-1.070850	0.346225	0.147486	-0.053038	-0.859905	0.507691	-0.018333	0.509160	0.860477	-0.998424	0.036331	-0.042769
820	675132066													-0.733005	0.779146	0.159082	-0.058824	-0.851145	0.521625	-0.023559	0.523568	0.851658	-0.997990	0.037810	-0.050850
821	675148733													-0.517137	0.719483	0.051620	-0.064499	-0.842839	0.534287	-0.028674	0.536746	0.843257	-0.997506	0.039069	-0.058787
822	675165400													-0.127579	0.588390	0.137135	-0.070242	-0.834955	0.545817	-0.034138	0.548860	0.835217	-0.996946	0.040034	-0.067056
823	675182067													0.238032	0.468711	-0.000915	-0.075434	-0.827126	0.556930	-0.039792	0.560574	0.827148	-0.996357	0.040234	-0.075199
824	675198734													0.459273	0.111570	-0.264629	-0.080073	-0.819326	0.567709	-0.044903	0.571925	0.819076	-0.995777	0.040094	-0.082586
825	675215401													0.860014	0.121610	-0.162297	-0.085028	-0.811052	0.578762	-0.048774	0.583557	0.810606	-0.995184	0.040695	-0.089177
826	675232068													0.934483	0.287028	0.180122	-0.089877	-0.801325	0.591439	-0.051677	0.596794	0.800728	-0.994611	0.041403	-0.095048
827	675248735													0.906917	0.562352	0.384608	-0.095188	-0.790332	0.605240	-0.054545	0.611228	0.789573	-0.993964	0.042145	-0.101290
828	675265402													1.137404	0.654099	0.675387	-0.100825	-0.777533	0.620707	-0.058470	0.627438	0.776468	-0.993185	0.041995	-0.108724
829	675282069													1.299614	0.727662	0.265257	-0.106346	-0.762797	0.637834	-0.063338	0.645365	0.761244	-0.992310	0.040557	-0.116946
830	675298736													1.298490	0.598154	-0.129098	-0.113044	-0.745810	0.656498	-0.068392	0.665007	0.743699	-0.991233	0.039172	-0.126182
831	675315403													1.295598	0.518329	-0.365584	-0.120710	-0.726580	0.676395	-0.073120	0.686034	0.723886	-0.989991	0.037922	-0.135938
832	675332070													1.221899	0.396567	-0.406015	-0.128767	-0.704677	0.697746	-0.076690	0.708573	0.701458	-0.988705	0.036814	-0.145282
833	675348737													1.152566	0.538966	-0.419857	-0.136995	-0.680817	0.719528	-0.078699	0.731561	0.677219	-0.987441	0.036149	-0.153799
834	675365404													0.990674	0.803143	-0.442747	-0.145673	-0.655110	0.741357	-0.078873	0.754656	0.651363	-0.986184	0.036413	-0.161603
835	675382071													0.850586	1.269553	0.189412	-0.154732	-0.628433	0.762319	-0.078793	0.777003	0.624546	-0.984810	0.036572	-0.169743
836	675398738													0.397511	1.319011	0.276361	-0.162207	-0.602419	0.781524	-0.078923	0.797396	0.598273	-0.983595	0.035364	-0.176888
837	675415405													0.277116	1.135863	0.380478	-0.168930	-0.578147	0.798254	-0.079397	0.815244	0.573649	-0.982425	0.033527	-0.183622
838	675432072													0.417198	0.959363	0.146008	-0.175335	-0.555817	0.812604	-0.080052	0.830706	0.550926	-0.981249	0.031546	-0.190146
839	675448739													0.296095	0.695451	-0.060061	-0.181399	-0.533838	0.825900	-0.080554	0.845077	0.528541	-0.980105	0.029347	-0.196299
840	675465406													0.275015	0.322294	-0.374638	-0.187758	-0.512388	0.837977	-0.080952	0.858320	0.506689	-0.978874	0.027299	-0.202635
841	675482073													0.558855	0.113289	-0.633633	-0.195474	-0.491538	0.848635	-0.080719	0.870456	0.485584	-0.977381	0.026418	-0.209828
842	675498740													0.820580	0.401097	-0.682129	-0.204841	-0.470740	0.858163	-0.079481	0.881859	0.464766	-0.975563	0.026995	-0.218056
843	675515407													0.652111	0.747258	-0.271215	-0.215636	-0.449813	0.866700	-0.077368	0.892661	0.444038	-0.973404	0.028695	-0.227291
844	675532074													0.211945	1.038747	0.042379	-0.226072	-0.428514	0.874796	-0.074870	0.903033	0.422997	-0.971229	0.030132	-0.236233
845	675548741													-0.211462	0.870369	0.144489	-0.236516	-0.406592	0.882464	-0.072083	0.913073	0.401376	-0.968950	0.031321	-0.245265
846	675565408													-0.398914	0.561041	0.071639	-0.248172	-0.384587	0.889103	-0.069276	0.922512	0.379701	-0.966236	0.032637	-0.255584
847	675582075													-0.273830	0.430771	0.024457	-0.261038	-0.363459	0.894291	-0.066763	0.930990	0.358887	-0.963017	0.033977	-0.267290
848	675598742													0.024030	0.630283	0.050819	-0.274765	-0.343823	0.897937	-0.064575	0.938370	0.339546	-0.959341	0.035311	-0.280033
849	675615409													0.378567	0.958741	0.217443	-0.289133	-0.326381	0.899932	-0.062767	0.944524	0.322388	-0.955229	0.036727	-0.293580
