// Start Time: Unknown
// Update Rate: 100.0Hz
//Filter Profile: human (46.1)
// Option Flags: AHS Disabled ICC Disabled
// Firmware Version: 4.0.2
PacketCounter	SampleTimeFine	Year	Month	Day	Second	UTC_Nano	UTC_Year	UTC_Month	UTC_Day	UTC_Hour	UTC_Minute	UTC_Second	UTC_Valid	Acc_X	Acc_Y	Acc_Z	Mat[1][1]	Mat[1][2]	Mat[1][3]	Mat[2][1]	Mat[2][2]	Mat[2][3]	Mat[3][1]	Mat[3][2]	Mat[3][3]
1	669013589													-0.012801	0.008504	-0.042716	-0.145020	-0.964654	0.220025	-0.099611	-0.207011	-0.973254	0.984402	-0.163058	-0.066070
2	669030256													-0.026775	0.005306	-0.045471	-0.145598	-0.964741	0.219264	-0.099953	-0.206148	-0.973402	0.984282	-0.163642	-0.066414
3	669046923													0.013226	-0.004479	-0.045943	-0.146300	-0.964863	0.218257	-0.099866	-0.205099	-0.973633	0.984187	-0.164239	-0.066351
4	669063590													0.000791	0.012481	-0.024328	-0.147057	-0.964842	0.217839	-0.100305	-0.204551	-0.973703	0.984029	-0.165040	-0.066697
5	669080257													-0.027260	0.054413	0.023854	-0.147702	-0.964813	0.217531	-0.100751	-0.204121	-0.973747	0.983887	-0.165741	-0.067056
6	669096924													0.023729	0.042801	-0.007059	-0.148155	-0.964825	0.217170	-0.100888	-0.203702	-0.973821	0.983805	-0.166186	-0.067160
7	669113591													0.043564	0.046967	-0.069011	-0.148583	-0.964664	0.217593	-0.101202	-0.204048	-0.973716	0.983708	-0.166698	-0.067308
8	669130258													0.017367	0.047270	-0.110855	-0.149075	-0.964453	0.218189	-0.101688	-0.204532	-0.973564	0.983583	-0.167322	-0.067583
9	669146925													-0.019465	0.029989	-0.061541	-0.149648	-0.964263	0.218637	-0.102128	-0.204870	-0.973447	0.983451	-0.168003	-0.067820
10	669163592													0.009180	-0.008918	-0.077110	-0.150345	-0.964177	0.218538	-0.102402	-0.204674	-0.973459	0.983316	-0.168733	-0.067962
11	669180259													0.052938	-0.000198	-0.058764	-0.151195	-0.964044	0.218540	-0.102680	-0.204569	-0.973452	0.983157	-0.169621	-0.068058
12	669196926													0.091510	0.015959	-0.023571	-0.152144	-0.963866	0.218666	-0.102908	-0.204590	-0.973423	0.982986	-0.170603	-0.068062
13	669213593													0.087984	0.001082	-0.068803	-0.153083	-0.963645	0.218985	-0.103099	-0.204814	-0.973356	0.982821	-0.171581	-0.067997
14	669230260													0.067600	0.035239	-0.040492	-0.154043	-0.963432	0.219249	-0.103182	-0.204999	-0.973308	0.982662	-0.172554	-0.067830
15	669246927													0.035659	0.020251	-0.080785	-0.155093	-0.963169	0.219662	-0.103117	-0.205354	-0.973240	0.982503	-0.173594	-0.067470
16	669263594													-0.062269	0.079406	-0.082305	-0.156240	-0.962887	0.220085	-0.102963	-0.205731	-0.973177	0.982338	-0.174710	-0.066998
17	669280261													-0.133171	0.162444	-0.072695	-0.157569	-0.962650	0.220177	-0.102708	-0.205777	-0.973194	0.982152	-0.175959	-0.066447
18	669296928													-0.241436	0.175228	-0.052882	-0.158927	-0.962433	0.220147	-0.102430	-0.205704	-0.973239	0.981962	-0.177224	-0.065890
19	669313595													-0.190046	0.059787	-0.048134	-0.160328	-0.962353	0.219480	-0.102196	-0.204978	-0.973417	0.981759	-0.178496	-0.065484
20	669330262													-0.025137	-0.042423	-0.065970	-0.161812	-0.962264	0.218779	-0.101976	-0.204208	-0.973601	0.981539	-0.179850	-0.065085
21	669346929													0.034014	-0.041557	-0.034379	-0.163301	-0.961992	0.218872	-0.101922	-0.204212	-0.973606	0.981297	-0.181299	-0.064700
22	669363596													-0.091865	0.044499	-0.030319	-0.164891	-0.961623	0.219299	-0.101979	-0.204528	-0.973534	0.981026	-0.182891	-0.064341
23	669380263													-0.172172	0.130115	-0.000745	-0.166450	-0.961340	0.219363	-0.102026	-0.204482	-0.973539	0.980757	-0.184427	-0.064046
24	669396930													-0.090312	0.093897	-0.000861	-0.168089	-0.961182	0.218804	-0.101973	-0.203817	-0.973684	0.980483	-0.185978	-0.063755
25	669413597													0.032932	0.043366	0.013144	-0.169720	-0.961030	0.218210	-0.101845	-0.203132	-0.973840	0.980216	-0.187504	-0.063401
26	669430264													0.085004	-0.019802	-0.026886	-0.171357	-0.960871	0.217632	-0.101664	-0.202474	-0.973996	0.979949	-0.189027	-0.062991
27	669446931													0.007189	-0.022668	-0.046985	-0.173046	-0.960642	0.217307	-0.101524	-0.202063	-0.974096	0.979667	-0.190626	-0.062562
28	669463598													-0.019423	0.037088	-0.040218	-0.174798	-0.960440	0.216795	-0.101337	-0.201467	-0.974239	0.979376	-0.192264	-0.062112
29	669480265													-0.037840	0.041646	-0.019518	-0.176567	-0.960254	0.216184	-0.101104	-0.200780	-0.974405	0.979082	-0.193905	-0.061634
30	669496932													0.018603	0.044400	-0.015410	-0.178382	-0.960096	0.215398	-0.100757	-0.199935	-0.974615	0.978789	-0.195557	-0.061072
31	669513599													0.053664	0.046672	-0.022879	-0.180209	-0.959961	0.214477	-0.100301	-0.198976	-0.974858	0.978501	-0.197191	-0.060427
32	669530266													0.053923	0.069472	-0.019999	-0.182095	-0.959810	0.213556	-0.099771	-0.198031	-0.975105	0.978206	-0.198868	-0.059701
33	669546933													0.024884	0.061999	-0.031323	-0.184048	-0.959670	0.212507	-0.099204	-0.196960	-0.975379	0.977898	-0.200599	-0.058953
34	669563600													-0.011738	0.035857	-0.024767	-0.186014	-0.959520	0.211472	-0.098624	-0.195907	-0.975650	0.977585	-0.202341	-0.058190
35	669580267													-0.070715	0.039776	0.008721	-0.187983	-0.959348	0.210507	-0.098080	-0.194921	-0.975903	0.977263	-0.204099	-0.057451
36	669596934													-0.008392	-0.015898	-0.019368	-0.189937	-0.959107	0.209852	-0.097523	-0.194255	-0.976091	0.976941	-0.205861	-0.056639
37	669613601													-0.011187	0.044889	-0.008676	-0.191948	-0.958840	0.209240	-0.097011	-0.193623	-0.976268	0.976599	-0.207691	-0.055852
38	669630268													0.002031	0.033591	-0.004061	-0.193952	-0.958537	0.208782	-0.096505	-0.193148	-0.976412	0.976253	-0.209525	-0.055043
39	669646935													0.014186	0.086951	0.007627	-0.196007	-0.958199	0.208412	-0.095990	-0.192765	-0.976539	0.975893	-0.211414	-0.054195
40	669663602													0.023071	0.097682	-0.019532	-0.198118	-0.957844	0.208048	-0.095454	-0.192392	-0.976665	0.975519	-0.213354	-0.053314
41	669680269													-0.001785	0.125713	-0.030987	-0.200298	-0.957484	0.207619	-0.094920	-0.191952	-0.976803	0.975126	-0.215359	-0.052436
42	669696936													0.002744	0.083559	-0.032665	-0.202506	-0.957143	0.207050	-0.094344	-0.191378	-0.976972	0.974726	-0.217376	-0.051546
43	669713603													0.022259	0.062607	0.018103	-0.204672	-0.956779	0.206602	-0.093743	-0.190940	-0.977115	0.974331	-0.219355	-0.050612
44	669730270													0.046573	0.103707	-0.019556	-0.206931	-0.956384	0.206179	-0.093039	-0.190548	-0.977259	0.973922	-0.221408	-0.049551
45	669746937													0.037885	0.097837	-0.037192	-0.209236	-0.955977	0.205738	-0.092275	-0.190154	-0.977408	0.973502	-0.223494	-0.048426
46	669763604													-0.045683	0.134906	-0.027534	-0.211753	-0.955554	0.205126	-0.091490	-0.189583	-0.977593	0.973031	-0.225775	-0.047279
47	669780271													-0.029084	0.078271	0.001286	-0.214290	-0.955170	0.204280	-0.090620	-0.188796	-0.977826	0.972557	-0.228050	-0.046100
48	669796938													0.078947	0.167417	-0.011769	-0.216922	-0.954754	0.203443	-0.089657	-0.188038	-0.978061	0.972063	-0.230403	-0.044811
49	669813605													0.039781	0.205866	-0.033363	-0.219646	-0.954316	0.202576	-0.088685	-0.187256	-0.978300	0.971540	-0.232845	-0.043504
50	669830272													-0.090511	0.126201	0.018045	-0.222417	-0.953882	0.201595	-0.087742	-0.186352	-0.978557	0.970996	-0.235336	-0.042247
51	669846939													-0.084611	0.114440	-0.004536	-0.225274	-0.953439	0.200513	-0.086786	-0.185348	-0.978833	0.970422	-0.237908	-0.040991
52	669863606													-0.005867	0.113979	-0.032822	-0.228154	-0.952988	0.199398	-0.085881	-0.184304	-0.979110	0.969830	-0.240512	-0.039794
53	669880273													-0.002878	0.103041	0.003742	-0.231187	-0.952429	0.198576	-0.085100	-0.183527	-0.979324	0.969180	-0.243306	-0.038623
54	669896940													-0.123574	0.167082	0.068164	-0.234379	-0.951725	0.198209	-0.084556	-0.183158	-0.979440	0.968461	-0.246320	-0.037545
55	669913607													-0.345822	0.266482	-0.007261	-0.237586	-0.951021	0.197769	-0.084100	-0.182695	-0.979566	0.967719	-0.249363	-0.036575
56	669930274													-0.279140	0.231406	-0.042301	-0.240925	-0.950354	0.196931	-0.083907	-0.181753	-0.979758	0.966910	-0.252572	-0.035953
57	669946941													-0.209829	0.178605	-0.030687	-0.244281	-0.949746	0.195729	-0.084003	-0.180360	-0.980007	0.966059	-0.255839	-0.035723
58	669963608													-0.196771	0.131294	-0.046303	-0.247738	-0.949122	0.194404	-0.084295	-0.178782	-0.980271	0.965153	-0.259238	-0.035715
59	669980275													-0.095938	0.181801	-0.097736	-0.251321	-0.948408	0.193290	-0.084757	-0.177368	-0.980488	0.964186	-0.262799	-0.035808
60	669996942													0.055720	0.108478	-0.038033	-0.254883	-0.947672	0.192229	-0.085320	-0.175979	-0.980690	0.963200	-0.266362	-0.036002
61	670013609													0.244653	0.073854	0.008275	-0.258579	-0.946879	0.191200	-0.085855	-0.174621	-0.980885	0.962167	-0.270052	-0.036141
62	670030276													0.383812	0.042870	0.006813	-0.262238	-0.945994	0.190598	-0.086207	-0.173755	-0.981008	0.961145	-0.273688	-0.035986
63	670046943													0.519343	-0.227408	0.137609	-0.265734	-0.944986	0.190753	-0.086405	-0.173724	-0.980996	0.960167	-0.277166	-0.035487
64	670063610													0.731605	-0.326581	0.205580	-0.269043	-0.943769	0.192133	-0.086429	-0.175026	-0.980763	0.959242	-0.280474	-0.034480
65	670080277													0.651138	-0.169042	0.115074	-0.272129	-0.942311	0.194923	-0.086075	-0.177919	-0.980273	0.958403	-0.283539	-0.032693
66	670096944													0.190041	-0.020499	0.095362	-0.275102	-0.940858	0.197750	-0.085195	-0.181021	-0.979782	0.957633	-0.286387	-0.030357
67	670113611													0.009015	0.036333	0.132778	-0.278052	-0.939642	0.199400	-0.083748	-0.183081	-0.979524	0.956908	-0.289058	-0.027787
68	670130278													0.009057	0.078283	0.000803	-0.280903	-0.938658	0.200035	-0.081797	-0.184254	-0.979469	0.956244	-0.291498	-0.025022
69	670146945													-0.016837	-0.088014	-0.082455	-0.283845	-0.937686	0.200443	-0.079746	-0.185232	-0.979454	0.955548	-0.293997	-0.022199
70	670163612													-0.174633	-0.133811	0.087983	-0.286742	-0.936453	0.202078	-0.078232	-0.187342	-0.979175	0.954808	-0.296579	-0.019541
71	670180279													-0.660404	0.076513	0.159667	-0.289482	-0.935179	0.204059	-0.077195	-0.189683	-0.978806	0.954065	-0.299099	-0.017281
72	670196946													-0.984860	0.053551	0.286661	-0.291881	-0.934086	0.205642	-0.076748	-0.191438	-0.978499	0.953371	-0.301388	-0.015812
73	670213613													-0.703889	-0.063291	0.251259	-0.293908	-0.933025	0.207563	-0.077184	-0.193278	-0.978103	0.952712	-0.303493	-0.015209
74	670230280													-0.372768	0.034399	0.164373	-0.295864	-0.931750	0.210491	-0.078381	-0.195933	-0.977480	0.952009	-0.305699	-0.015062
75	670246947													-0.393730	0.289004	0.128853	-0.297804	-0.930493	0.213297	-0.079985	-0.198328	-0.976867	0.951270	-0.307976	-0.015362
76	670263614													-0.502025	0.363869	0.019811	-0.299717	-0.929438	0.215208	-0.081869	-0.199689	-0.976433	0.950509	-0.310273	-0.016242
77	670280281													-0.181303	0.544573	-0.169263	-0.301776	-0.928519	0.216297	-0.083864	-0.200141	-0.976171	0.949683	-0.312725	-0.017472
78	670296948													-0.199178	0.404705	-0.052027	-0.303954	-0.927920	0.215817	-0.085790	-0.198955	-0.976246	0.948816	-0.315249	-0.019133
79	670313615													-0.344364	0.090240	0.138115	-0.306097	-0.927771	0.213415	-0.087387	-0.195846	-0.976733	0.947981	-0.317625	-0.021127
80	670330282													0.016349	-0.302259	0.234645	-0.308018	-0.927928	0.209939	-0.088484	-0.191771	-0.977443	0.947257	-0.319646	-0.023038
81	670346949													0.322141	-0.407420	0.153617	-0.309518	-0.928161	0.206678	-0.089302	-0.188018	-0.978097	0.946691	-0.321196	-0.024691
82	670363616													0.402398	-0.354013	0.188219	-0.310686	-0.928399	0.203837	-0.089775	-0.184830	-0.978661	0.946264	-0.322356	-0.025922
83	670380283													0.373706	-0.134769	0.169289	-0.311549	-0.928709	0.201088	-0.089798	-0.181898	-0.979209	0.945977	-0.323129	-0.026726
84	670396950													0.217999	-0.009510	0.083163	-0.312229	-0.929225	0.197622	-0.089084	-0.178467	-0.979905	0.945821	-0.323560	-0.027057
85	670413617													0.209795	-0.012980	0.079208	-0.312767	-0.929979	0.193171	-0.087788	-0.174201	-0.980789	0.945764	-0.323716	-0.027156
86	670430284													0.336385	-0.015439	0.220779	-0.313211	-0.930852	0.188185	-0.086128	-0.169496	-0.981760	0.945770	-0.323706	-0.027085
87	670446951													0.281842	0.028495	0.187487	-0.313444	-0.931741	0.183334	-0.084225	-0.165025	-0.982687	0.945864	-0.323458	-0.026750
88	670463618													0.144943	0.099447	0.059522	-0.313531	-0.932614	0.178686	-0.082265	-0.160790	-0.983554	0.946008	-0.323074	-0.026309
89	670480285													-0.069072	0.073313	0.122896	-0.313519	-0.933514	0.173946	-0.080434	-0.156416	-0.984411	0.946169	-0.322622	-0.026047
90	670496952													0.175962	-0.127829	0.290013	-0.313297	-0.934379	0.169648	-0.078657	-0.152496	-0.985169	0.946392	-0.321995	-0.025719
91	670513619													0.374944	-0.150131	0.336615	-0.312700	-0.935155	0.166447	-0.077076	-0.149675	-0.985726	0.946720	-0.321066	-0.025275
92	670530286													0.191275	-0.207230	0.280034	-0.311828	-0.935669	0.165189	-0.075950	-0.148755	-0.985953	0.947098	-0.319994	-0.024678
93	670546953													-0.061687	-0.192534	0.182190	-0.310583	-0.936010	0.165602	-0.075307	-0.149440	-0.985899	0.947559	-0.318674	-0.024075
94	670563620													-0.190926	-0.063490	0.040998	-0.309147	-0.936265	0.166843	-0.075190	-0.150825	-0.985697	0.948037	-0.317270	-0.023770
95	670580287													-0.173582	0.033458	-0.002241	-0.307606	-0.936472	0.168519	-0.075505	-0.152524	-0.985411	0.948513	-0.315842	-0.023791
96	670596954													-0.324522	0.170924	0.054356	-0.306168	-0.936677	0.169990	-0.076074	-0.153921	-0.985150	0.948933	-0.314554	-0.024131
97	670613621													-0.389123	0.182358	0.306740	-0.304504	-0.936994	0.171227	-0.076935	-0.154983	-0.984917	0.949399	-0.313085	-0.024894
98	670630288													-0.145920	0.268200	0.188204	-0.302867	-0.937355	0.172152	-0.077878	-0.155690	-0.984731	0.949846	-0.311649	-0.025846
99	670646955													-0.167735	0.225412	0.033104	-0.301203	-0.937676	0.173323	-0.079142	-0.156555	-0.984493	0.950270	-0.310249	-0.027055
100	670663622													-0.308361	0.138838	0.072923	-0.299621	-0.937978	0.174424	-0.080759	-0.157232	-0.984254	0.950634	-0.308989	-0.028641
101	670680289													-0.141401	0.160233	0.082487	-0.298057	-0.938247	0.175655	-0.082712	-0.157941	-0.983978	0.950958	-0.307810	-0.030529
102	670696956													-0.115156	0.285169	0.009780	-0.296568	-0.938402	0.177340	-0.085046	-0.159006	-0.983608	0.951217	-0.306789	-0.032651
103	670713623													-0.046068	0.247381	-0.027804	-0.295237	-0.938394	0.179589	-0.087853	-0.160508	-0.983117	0.951376	-0.306030	-0.035053
104	670730290													-0.084861	0.226816	0.087731	-0.294024	-0.938221	0.182457	-0.091229	-0.162476	-0.982486	0.951434	-0.305520	-0.037821
105	670746957													-0.249000	0.125402	0.162959	-0.292747	-0.937971	0.185765	-0.095045	-0.164770	-0.981742	0.951454	-0.305058	-0.040914
106	670763624													-0.336289	0.205642	0.096342	-0.291522	-0.937608	0.189489	-0.099413	-0.167324	-0.980877	0.951384	-0.304785	-0.044432
107	670780291													-0.851917	0.289062	0.293754	-0.290131	-0.937381	0.192721	-0.104262	-0.169222	-0.980048	0.951290	-0.304436	-0.048636
108	670796958													-1.051684	0.198496	0.514790	-0.288512	-0.937625	0.193960	-0.109227	-0.169021	-0.979541	0.951226	-0.303796	-0.053649
109	670813625													-0.554226	-0.117868	0.331800	-0.286521	-0.938108	0.194575	-0.114788	-0.168014	-0.979079	0.951173	-0.302862	-0.059544
110	670830292													0.042686	-0.270610	0.276780	-0.283948	-0.937984	0.198894	-0.122087	-0.170376	-0.977787	0.951035	-0.301923	-0.066138
111	670846959													-0.802547	-0.027376	0.200793	-0.280907	-0.937403	0.205834	-0.130808	-0.175073	-0.975827	0.950779	-0.301041	-0.073440
112	670863626													-1.323101	0.058175	0.272610	-0.277572	-0.936899	0.212544	-0.140381	-0.179308	-0.973726	0.950393	-0.300116	-0.081752
113	670880293													-1.103203	0.037630	0.214941	-0.273959	-0.936663	0.218196	-0.150665	-0.182276	-0.971636	0.949867	-0.299063	-0.091186
114	670896960													-0.398141	0.115592	0.057953	-0.270062	-0.936348	0.224319	-0.161813	-0.185524	-0.969225	0.949148	-0.298049	-0.101410
115	670913627													-0.001573	0.310772	0.047768	-0.265893	-0.935643	0.232105	-0.173873	-0.190276	-0.966211	0.948192	-0.297266	-0.112090
116	670930294													-0.307942	0.823043	0.034936	-0.261834	-0.934783	0.240048	-0.186368	-0.195071	-0.962920	0.946948	-0.296863	-0.123138
117	670946961													-0.523910	0.752179	-0.025352	-0.258253	-0.934135	0.246369	-0.198580	-0.198244	-0.959826	0.945448	-0.296801	-0.134303
118	670963628													-0.248905	0.590334	0.056124	-0.255339	-0.933770	0.250749	-0.210525	-0.199427	-0.957031	0.943653	-0.297157	-0.145660
119	670980295													-0.058798	0.346024	0.172669	-0.252743	-0.933524	0.254269	-0.222324	-0.199734	-0.954295	0.941644	-0.297722	-0.157063
120	670996962													0.206672	0.251854	0.302780	-0.250323	-0.933191	0.257861	-0.233881	-0.200166	-0.951438	0.939488	-0.298475	-0.168149
121	671013629													0.320956	0.321698	0.425472	-0.247799	-0.932607	0.262373	-0.245255	-0.201612	-0.948263	0.937254	-0.299327	-0.178767
122	671030296													0.358416	0.488758	0.455393	-0.245088	-0.931889	0.267422	-0.256207	-0.203772	-0.944899	0.935035	-0.300099	-0.188814
123	671046963													0.470244	0.608521	0.463023	-0.242276	-0.931183	0.272399	-0.266759	-0.206008	-0.941488	0.932814	-0.300765	-0.198490
124	671063630													0.412953	0.723759	0.408054	-0.239450	-0.930556	0.277000	-0.277001	-0.207966	-0.938094	0.930556	-0.301356	-0.207968
125	671080297													0.234085	0.618269	0.252486	-0.236734	-0.930046	0.281019	-0.286736	-0.209478	-0.934827	0.928299	-0.301884	-0.217087
126	671096964													0.167457	0.616371	0.215529	-0.234118	-0.929822	0.283937	-0.295821	-0.210074	-0.931858	0.926109	-0.302159	-0.225879
127	671113631													0.222130	0.529311	0.118845	-0.231526	-0.929918	0.285743	-0.304367	-0.209736	-0.929178	0.923989	-0.302100	-0.234477
128	671130298													0.281458	0.212554	-0.085691	-0.229015	-0.930167	0.286951	-0.312427	-0.208952	-0.926676	0.921923	-0.301874	-0.242756
129	671146965													0.488341	0.048118	-0.161881	-0.226226	-0.930449	0.288246	-0.320147	-0.208455	-0.924149	0.919961	-0.301348	-0.250723
130	671163632													0.617561	-0.002914	-0.173703	-0.223244	-0.930635	0.289966	-0.327580	-0.208545	-0.921521	0.918071	-0.300711	-0.258301
131	671180299													0.431793	-0.033265	-0.251400	-0.219976	-0.930649	0.292409	-0.334731	-0.209541	-0.918721	0.916278	-0.299975	-0.265423
132	671196966													0.145005	0.069895	-0.250057	-0.216353	-0.930504	0.295558	-0.341884	-0.211353	-0.915667	0.914498	-0.299154	-0.272397
133	671213633													-0.073700	0.119877	-0.202226	-0.212786	-0.930403	0.298450	-0.348853	-0.212973	-0.912657	0.912701	-0.298316	-0.279257
134	671230300													-0.290250	0.264667	-0.212947	-0.209257	-0.930287	0.301294	-0.355691	-0.214597	-0.909633	0.910876	-0.297515	-0.285989
135	671246967													-0.559075	0.463411	-0.246915	-0.206216	-0.930486	0.302772	-0.362430	-0.214783	-0.906925	0.908911	-0.296756	-0.292945
136	671263634													-0.799041	0.712579	-0.261749	-0.203674	-0.931015	0.302867	-0.369608	-0.213340	-0.904365	0.906591	-0.296138	-0.300658
137	671280301													-0.804885	0.738308	-0.076306	-0.201691	-0.931806	0.301760	-0.377300	-0.210400	-0.901874	0.903862	-0.295754	-0.309134
138	671296968													-0.887008	0.670208	0.181206	-0.199961	-0.932673	0.300228	-0.385708	-0.206745	-0.899158	0.900691	-0.295597	-0.318399
139	671313635													-1.029350	0.801724	0.518757	-0.198268	-0.933475	0.298854	-0.395068	-0.202931	-0.895958	0.897001	-0.295708	-0.328552
140	671330302													-1.437002	1.054187	0.845958	-0.196560	-0.933946	0.298511	-0.405677	-0.199703	-0.891933	0.892631	-0.296417	-0.339627
141	671346969													-2.186266	1.498186	1.559020	-0.195263	-0.934088	0.298918	-0.418221	-0.196380	-0.886863	0.887110	-0.298185	-0.352310
142	671363636													-2.933993	1.538994	1.278154	-0.193230	-0.934139	0.300076	-0.432481	-0.193433	-0.880650	0.880694	-0.299945	-0.366620
143	671380303													-3.384926	1.707002	0.369757	-0.190236	-0.934313	0.301446	-0.448507	-0.190426	-0.873258	0.873299	-0.301326	-0.382820
144	671396970													-3.772839	1.846910	0.450257	-0.187436	-0.934979	0.301135	-0.466401	-0.185094	-0.864991	0.864487	-0.302581	-0.401382
145	671413637													-3.970111	1.424758	0.899002	-0.185234	-0.936402	0.298061	-0.485649	-0.176452	-0.856160	0.854303	-0.303343	-0.422078
146	671430304													-3.904554	0.792475	0.946022	-0.182859	-0.938475	0.292963	-0.505828	-0.165713	-0.846568	0.843030	-0.302992	-0.444405
147	671446971													-3.660407	0.049904	1.263494	-0.181060	-0.940985	0.285944	-0.526462	-0.152848	-0.836347	0.830696	-0.301968	-0.467718
148	671463638													-3.384894	-0.755679	1.562724	-0.180139	-0.943688	0.277495	-0.546812	-0.138430	-0.825732	0.817647	-0.300484	-0.491084
149	671480305													-3.337558	-1.174957	1.693969	-0.179775	-0.946272	0.268793	-0.566751	-0.123704	-0.814549	0.804036	-0.298774	-0.514062
150	671496972													-2.773880	-1.649094	1.203922	-0.180169	-0.948716	0.259763	-0.585358	-0.108821	-0.803439	0.790503	-0.296809	-0.535732
151	671513639													-2.207226	-2.427763	0.419048	-0.181093	-0.950792	0.251397	-0.602362	-0.094833	-0.792570	0.777409	-0.294961	-0.555547
152	671530306													-1.931938	-2.673633	-0.237411	-0.182399	-0.952484	0.243937	-0.617496	-0.082096	-0.782278	0.765133	-0.293317	-0.573181
153	671546973													-1.780532	-2.525754	-0.745974	-0.185856	-0.953853	0.235842	-0.629981	-0.068519	-0.773582	0.754043	-0.292351	-0.588175
154	671563640													-1.623172	-2.093755	-1.103588	-0.191250	-0.954829	0.227431	-0.639274	-0.054655	-0.767034	0.744817	-0.292086	-0.599945
155	671580307													-1.092770	-2.119372	-0.460681	-0.194673	-0.955752	0.220546	-0.645437	-0.044489	-0.762517	0.738589	-0.290790	-0.608217
156	671596974													-2.307614	-0.406480	-2.178012	-0.192201	-0.956930	0.217584	-0.648138	-0.042701	-0.760325	0.736869	-0.287160	-0.612016
157	671613641													-3.019903	0.539787	-4.865159	-0.188772	-0.958391	0.214129	-0.645700	-0.043151	-0.762371	0.739889	-0.282177	-0.610688
158	671630308													-2.742283	-0.279142	-5.653415	-0.193842	-0.959814	0.202933	-0.635637	-0.034684	-0.771208	0.747255	-0.278485	-0.603370
159	671646975													-3.617268	-0.864771	-5.015047	-0.202262	-0.960947	0.188867	-0.618823	-0.024066	-0.785162	0.759044	-0.275684	-0.589788
160	671663642													-4.337974	-0.189537	-4.474997	-0.212077	-0.961674	0.173797	-0.595493	-0.013841	-0.803241	0.774862	-0.273844	-0.569735
161	671680309													-4.116993	-0.247084	-4.057109	-0.227406	-0.962139	0.150252	-0.564184	0.004412	-0.825637	0.793714	-0.272524	-0.543827
162	671696976													-3.728742	-0.607026	-3.777815	-0.246536	-0.962130	0.116299	-0.525024	0.031727	-0.850496	0.814598	-0.270737	-0.512963
163	671713643													-3.450007	-0.529467	-2.509962	-0.265004	-0.961257	0.075885	-0.478951	0.062918	-0.875584	0.836886	-0.268379	-0.477068
164	671730310													-2.491555	-0.050305	-0.939519	-0.280248	-0.959385	0.032285	-0.426630	0.094354	-0.899491	0.859912	-0.265854	-0.435744
165	671746977													-0.690899	0.113499	0.591272	-0.290458	-0.956831	-0.010419	-0.369834	0.122297	-0.921014	0.882529	-0.263662	-0.389391
166	671763644													1.008817	0.164069	1.686108	-0.293790	-0.954781	-0.045617	-0.311456	0.140737	-0.939781	0.903705	-0.261891	-0.338720
167	671780311													1.928972	0.356497	1.974418	-0.290058	-0.954543	-0.068658	-0.252895	0.145644	-0.956469	0.922990	-0.260068	-0.283644
168	671796978													2.083579	0.570512	1.801662	-0.281424	-0.956324	-0.079024	-0.193723	0.137278	-0.971404	0.939826	-0.258067	-0.223895
169	671813645													1.892128	0.734411	1.662708	-0.270825	-0.959344	-0.079453	-0.133511	0.119173	-0.983856	0.953325	-0.255845	-0.160359
170	671830312													1.917569	0.951740	1.676704	-0.260930	-0.962498	-0.074255	-0.072417	0.096219	-0.992722	0.962638	-0.253654	-0.094808
171	671846979													2.228737	1.229795	2.101706	-0.253331	-0.965071	-0.066799	-0.010938	0.071905	-0.997352	0.967318	-0.251930	-0.028772
172	671863646													2.736910	1.378349	2.605846	-0.247460	-0.967185	-0.057596	0.050119	0.046587	-0.997656	0.967601	-0.249766	0.036946
173	671880313													2.532292	1.193043	1.428520	-0.239558	-0.969567	-0.050523	0.111864	0.024127	-0.993431	0.964416	-0.243636	0.102680
174	671896980													3.003385	1.118914	1.433265	-0.231171	-0.971745	-0.047672	0.172013	0.007405	-0.985067	0.957586	-0.235919	0.165440
175	671913647													3.563366	0.724061	1.780190	-0.222384	-0.973694	-0.049657	0.228598	-0.002562	-0.973517	0.947781	-0.227846	0.223155
176	671930314													4.023814	0.960121	1.921844	-0.212063	-0.975284	-0.062045	0.281381	-0.000135	-0.959596	0.935871	-0.220953	0.274456
177	671946981													4.138866	0.813474	1.444507	-0.197987	-0.976599	-0.084003	0.328926	0.014536	-0.944244	0.923368	-0.214578	0.318351
178	671963648													5.105902	0.203047	0.285843	-0.180801	-0.977055	-0.112585	0.368941	0.038736	-0.928645	0.911698	-0.209437	0.353472
179	671980315													7.071009	-0.871369	-1.762931	-0.164583	-0.976243	-0.140936	0.399206	0.064732	-0.914573	0.901969	-0.206785	0.379068
180	671996982													7.642118	-1.517778	-3.995986	-0.153979	-0.974816	-0.161319	0.417715	0.083737	-0.904711	0.895435	-0.206693	0.394301
181	672013649													7.444485	-1.902345	-4.634389	-0.152996	-0.973111	-0.172186	0.422180	0.093176	-0.901711	0.893508	-0.210652	0.396572
182	672030316													7.067916	-1.507625	-3.729682	-0.158285	-0.971074	-0.178776	0.412988	0.099350	-0.905301	0.896876	-0.217129	0.385316
183	672046983													7.081763	-1.440362	-2.810028	-0.165264	-0.968620	-0.185642	0.392831	0.108005	-0.913246	0.904639	-0.223852	0.362655
184	672063650													1.599501	-1.130511	1.201698	-0.173230	-0.966950	-0.187080	0.367061	0.112880	-0.923322	0.913924	-0.228617	0.335375
185	672080317													-9.495081	5.723630	7.462002	-0.180822	-0.969051	-0.168057	0.349687	0.096363	-0.931897	0.919251	-0.227275	0.321441
186	672096984													-3.253291	9.088359	4.057564	-0.183780	-0.968733	-0.166679	0.344980	0.095216	-0.933768	0.920442	-0.229109	0.316694
187	672113651													8.391059	0.564744	-2.220011	-0.182502	-0.966084	-0.182686	0.334065	0.113823	-0.935652	0.924713	-0.231787	0.301962
188	672130318													4.350425	2.926864	0.546247	-0.194258	-0.965843	-0.171496	0.305870	0.106472	-0.946101	0.932045	-0.236243	0.274740
189	672146985													-0.523846	1.570293	2.722595	-0.198103	-0.963241	-0.181444	0.280753	0.121595	-0.952047	0.939113	-0.239544	0.246345
190	672163652													3.726213	-2.643488	0.420170	-0.193271	-0.953154	-0.232688	0.266510	0.177242	-0.947395	0.944256	-0.245117	0.219769
191	672180319													4.350697	-1.359033	-0.181466	-0.198612	-0.946628	-0.253868	0.247762	0.202120	-0.947503	0.948244	-0.251084	0.194395
192	672196986													6.240118	-0.421245	-1.211211	-0.204356	-0.942561	-0.264231	0.225999	0.217206	-0.949603	0.952451	-0.253773	0.168630
193	672213653													7.432486	-1.344218	-1.196214	-0.210515	-0.941285	-0.263943	0.205667	0.221307	-0.953270	0.955712	-0.254962	0.147003
194	672230320													5.080436	0.364819	-0.974253	-0.222168	-0.944558	-0.241766	0.186601	0.202188	-0.961405	0.956986	-0.258707	0.131336
195	672246987													1.518692	1.991593	-0.243006	-0.233629	-0.947903	-0.216557	0.169130	0.179708	-0.969072	0.957503	-0.263030	0.118334
196	672263654													-1.334547	2.285346	0.643563	-0.241124	-0.948329	-0.206233	0.155122	0.172110	-0.972787	0.958017	-0.266554	0.105607
197	672280321													-1.937587	0.658170	0.802410	-0.245881	-0.945867	-0.211846	0.142684	0.180856	-0.973105	0.958741	-0.269495	0.090491
198	672296988													-0.154950	-0.537240	-0.076488	-0.248592	-0.941419	-0.227886	0.130966	0.200442	-0.970912	0.959714	-0.271206	0.073466
199	672313655													2.522399	-0.798990	-0.385307	-0.251759	-0.936882	-0.242630	0.119429	0.218713	-0.968453	0.960393	-0.272794	0.056828
200	672330322													3.746957	-0.518325	-0.313890	-0.255874	-0.934595	-0.247103	0.107748	0.226448	-0.968045	0.960687	-0.274323	0.042759
201	672346989													2.435119	-0.377723	-0.061336	-0.260476	-0.934929	-0.240958	0.095479	0.223406	-0.970038	0.960748	-0.275678	0.031074
202	672363656													0.701238	0.074863	0.396974	-0.264638	-0.935684	-0.233370	0.083623	0.218821	-0.972175	0.960715	-0.276790	0.020336
203	672380323													0.223337	0.470026	0.558500	-0.267710	-0.935535	-0.230447	0.072748	0.218868	-0.973039	0.960749	-0.277256	0.009465
204	672396990													0.632138	0.286168	0.187206	-0.269701	-0.934374	-0.232821	0.063070	0.224121	-0.972518	0.960876	-0.276974	-0.001515
205	672413657													1.236243	-0.010949	-0.112964	-0.271279	-0.933061	-0.236228	0.054213	0.230230	-0.971625	0.960973	-0.276388	-0.011872
206	672430324													1.456352	-0.088502	-0.163067	-0.272728	-0.932007	-0.238710	0.045898	0.235230	-0.970855	0.960996	-0.275736	-0.021377
207	672446991													1.030729	0.119438	0.081528	-0.273996	-0.931677	-0.238545	0.037319	0.237551	-0.970658	0.961007	-0.274858	-0.030319
208	672463658													0.674557	0.081621	0.159050	-0.274955	-0.931201	-0.239300	0.029126	0.240711	-0.970160	0.961016	-0.273720	-0.039062
209	672480325													0.937287	0.134409	-0.004514	-0.275855	-0.930473	-0.241090	0.021440	0.244804	-0.969336	0.960960	-0.272565	-0.047581
210	672496992													1.357431	0.450949	-0.240814	-0.276988	-0.929934	-0.241868	0.013787	0.247844	-0.968702	0.960774	-0.271654	-0.055829
211	672513659													1.449417	0.471130	-0.126956	-0.278309	-0.929844	-0.240694	0.005734	0.248982	-0.968491	0.960474	-0.270920	-0.063962
212	672530326													1.239605	0.328365	-0.173645	-0.280193	-0.930128	-0.237390	-0.002750	0.248072	-0.968738	0.959940	-0.270781	-0.072066
213	672546993													0.386170	0.119788	-0.134027	-0.282302	-0.930861	-0.231956	-0.012021	0.245204	-0.969397	0.959250	-0.270874	-0.080411
214	672563660													-0.453590	-0.067000	-0.034696	-0.284164	-0.931675	-0.226347	-0.021954	0.242340	-0.969943	0.958524	-0.270654	-0.089319
215	672580327													-0.049435	-0.052047	0.034802	-0.286188	-0.931817	-0.223190	-0.031787	0.242037	-0.969746	0.957646	-0.270435	-0.098888
216	672596994													0.312965	0.059652	-0.050343	-0.287848	-0.931932	-0.220559	-0.042039	0.242381	-0.969270	0.956753	-0.269731	-0.108946
217	672613661													0.560232	0.205878	0.043323	-0.289398	-0.932414	-0.216458	-0.052971	0.241388	-0.968982	0.955742	-0.268955	-0.119248
218	672630328													0.407863	0.318372	0.118216	-0.290830	-0.933138	-0.211358	-0.064585	0.239549	-0.968734	0.954592	-0.268087	-0.129935
219	672646995													0.216144	0.291617	0.076563	-0.292227	-0.933758	-0.206640	-0.076596	0.238230	-0.968184	0.953277	-0.267102	-0.141139
220	672663662													0.119587	0.167223	-0.011869	-0.293584	-0.934133	-0.202985	-0.088672	0.238039	-0.967199	0.951812	-0.265956	-0.152716
221	672680329													0.250341	-0.038013	0.146112	-0.294771	-0.934509	-0.199506	-0.101215	0.238142	-0.965942	0.950193	-0.264538	-0.164784
222	672696996													0.463404	-0.157432	0.363472	-0.295784	-0.935072	-0.195325	-0.114344	0.237661	-0.964595	0.948387	-0.262977	-0.177216
223	672713663													0.149422	-0.293999	0.599304	-0.296292	-0.935987	-0.190105	-0.128217	0.236221	-0.963203	0.946452	-0.261015	-0.190000
224	672730330													-0.148089	-0.320874	0.576692	-0.296545	-0.936992	-0.184679	-0.142565	0.234643	-0.961571	0.944318	-0.258820	-0.203165
225	672746997													-0.107772	-0.249463	0.576388	-0.296467	-0.938104	-0.179074	-0.157563	0.232978	-0.959633	0.941956	-0.256284	-0.216881
226	672763664													-0.126162	-0.105897	0.484386	-0.296184	-0.939359	-0.172855	-0.173397	0.230850	-0.957414	0.939260	-0.253598	-0.231256
227	672780331													-0.388475	-0.085960	0.064054	-0.295579	-0.941009	-0.164726	-0.190540	0.227036	-0.955065	0.936124	-0.250910	-0.246407
228	672796998													-0.868645	-0.342248	0.042579	-0.294758	-0.942744	-0.156049	-0.209205	0.223008	-0.952103	0.932390	-0.247994	-0.262960
229	672813665													-1.095005	-0.354178	0.141556	-0.294187	-0.944135	-0.148533	-0.229265	0.220585	-0.948040	0.927842	-0.244848	-0.281350
230	672830332													-1.257809	-0.504772	0.456917	-0.293698	-0.945337	-0.141699	-0.250753	0.219238	-0.942899	0.922423	-0.241396	-0.301436
231	672846999													-1.383334	-0.868311	1.101535	-0.292690	-0.946648	-0.134874	-0.274155	0.218208	-0.936603	0.916063	-0.237158	-0.323395
232	672863666													-1.301150	-1.129899	1.933268	-0.290738	-0.948304	-0.127241	-0.299513	0.216505	-0.929203	0.908715	-0.232045	-0.346976
233	672880333													-0.972046	0.047296	2.267879	-0.287994	-0.950373	-0.117693	-0.326361	0.212947	-0.920946	0.900304	-0.226816	-0.371492
234	672897000													-1.487681	1.635174	2.816116	-0.283921	-0.953052	-0.105267	-0.355206	0.206517	-0.911690	0.890627	-0.221457	-0.397164
235	672913667													-2.588058	3.050059	3.589329	-0.279117	-0.955949	-0.090859	-0.384917	0.198066	-0.901448	0.879735	-0.216637	-0.423244
236	672930334													-3.584797	2.948612	3.102488	-0.273275	-0.958917	-0.076150	-0.416265	0.189253	-0.889329	0.867205	-0.211333	-0.450882
237	672947001													-4.034374	2.499177	2.953280	-0.267480	-0.961503	-0.062974	-0.448808	0.182154	-0.874866	0.852658	-0.205746	-0.480253
238	672963668													-4.589465	1.835604	2.654299	-0.261160	-0.964014	-0.049720	-0.481913	0.174838	-0.858598	0.836394	-0.200270	-0.510232
239	672980335													-5.942162	0.866545	1.922238	-0.254394	-0.966460	-0.035187	-0.514973	0.166170	-0.840946	0.818588	-0.195811	-0.539973
240	672997002													-6.816676	0.109058	0.193702	-0.245616	-0.969208	-0.017579	-0.547455	0.153655	-0.822607	0.799978	-0.192422	-0.568338
241	673013669													-6.339985	-0.719201	-0.026534	-0.235513	-0.971871	0.000855	-0.578525	0.139487	-0.803649	0.780924	-0.189764	-0.595103
242	673030336													-5.500424	-1.233372	0.567690	-0.226188	-0.973962	0.015392	-0.608639	0.128975	-0.782895	0.760525	-0.186449	-0.621964
243	673047003													-5.106583	-1.704098	1.190735	-0.220338	-0.975122	0.024261	-0.638178	0.125303	-0.759623	0.737685	-0.182857	-0.649911
244	673063670													-4.458169	-1.686275	0.874870	-0.218647	-0.975350	0.029766	-0.666179	0.126911	-0.734915	0.713021	-0.180516	-0.677506
245	673080337													-3.897283	-1.758422	-0.454502	-0.219882	-0.974887	0.035307	-0.690767	0.130039	-0.711288	0.688834	-0.180788	-0.702014
246	673097004													-2.703323	-1.545939	-1.740672	-0.223750	-0.973744	0.041937	-0.709505	0.133229	-0.691992	0.668236	-0.184588	-0.720686
247	673113671													-1.261509	-1.909280	-1.681677	-0.227397	-0.972429	0.051694	-0.722243	0.132809	-0.678768	0.653189	-0.191686	-0.732531
248	673130338													0.806316	-1.912610	-0.157328	-0.228605	-0.971397	0.064251	-0.729941	0.127364	-0.671539	0.644147	-0.200416	-0.738178
249	673147005													-0.685420	-1.364202	-1.872267	-0.223042	-0.971599	0.079036	-0.734847	0.114310	-0.668531	0.640510	-0.207190	-0.739473
250	673163672													-1.749004	-0.760697	-3.790648	-0.212921	-0.972428	0.095126	-0.735887	0.095555	-0.670328	0.642755	-0.212729	-0.735943
251	673180339													-2.851422	-0.517410	-5.371231	-0.209225	-0.972667	0.100712	-0.729927	0.086810	-0.677990	0.650716	-0.215365	-0.728139
252	673197006													-4.211450	-0.403005	-6.521386	-0.211983	-0.972328	0.098186	-0.717022	0.086478	-0.691665	0.664035	-0.217023	-0.715513
253	673213673													-3.659216	-0.297457	-6.769342	-0.225999	-0.970484	0.084174	-0.695617	0.100289	-0.711378	0.681939	-0.219323	-0.697751
254	673230340													-1.915565	-1.655373	-5.413431	-0.250293	-0.966349	0.059354	-0.664837	0.126986	-0.736116	0.703808	-0.223705	-0.674249
255	673247007													-1.602465	-2.006378	-3.902071	-0.274903	-0.960996	0.030268	-0.625900	0.154971	-0.764351	0.729848	-0.229067	-0.644089
256	673263674													-2.441995	-1.956936	-3.634164	-0.297228	-0.954801	-0.003177	-0.579139	0.182929	-0.794440	0.759113	-0.234290	-0.607335
257	673280341													-2.118957	-0.934348	-3.999620	-0.315802	-0.947894	-0.042021	-0.524882	0.211421	-0.824500	0.790423	-0.238322	-0.564300
258	673297008													-1.250057	-0.893660	-2.062411	-0.331065	-0.939980	-0.082668	-0.463382	0.238270	-0.853525	0.821993	-0.244265	-0.514452
259	673313675													0.415104	-0.095002	0.785449	-0.338569	-0.933776	-0.115904	-0.398014	0.253739	-0.881590	0.852617	-0.252348	-0.457564
260	673330342													2.633956	0.614617	1.867191	-0.337651	-0.931043	-0.138386	-0.331504	0.255225	-0.908276	0.880964	-0.260804	-0.394822
261	673347009													3.546658	0.910954	1.645632	-0.329972	-0.932566	-0.146422	-0.265369	0.240492	-0.933672	0.905924	-0.269230	-0.326830
262	673363676													3.170866	1.012401	1.821318	-0.318751	-0.937575	-0.139110	-0.199320	0.209788	-0.957215	0.926644	-0.277386	-0.253747
263	673380343													2.923564	0.969905	2.398722	-0.307423	-0.944130	-0.118781	-0.132487	0.166078	-0.977172	0.942305	-0.284668	-0.176141
264	673397010													2.165862	0.915082	2.196271	-0.298356	-0.950080	-0.091280	-0.064687	0.115544	-0.991194	0.952260	-0.289824	-0.095931
265	673413677													1.544620	0.975624	1.913693	-0.293347	-0.953631	-0.067350	0.004347	0.069118	-0.997599	0.955996	-0.292936	-0.016130
266	673430344													1.820677	1.042911	2.098351	-0.291204	-0.955289	-0.051224	0.074085	0.030865	-0.996774	0.953788	-0.294059	0.061784
267	673447011													3.218247	1.622759	2.235661	-0.290864	-0.955811	-0.042699	0.141967	0.001018	-0.989871	0.946173	-0.293980	0.135397
268	673463678													4.938783	1.894885	2.997523	-0.290827	-0.955946	-0.039846	0.205517	-0.021742	-0.978412	0.934443	-0.292737	0.202786
269	673480345													5.853300	2.574059	3.268642	-0.289242	-0.956456	-0.039120	0.264183	-0.040478	-0.963623	0.920080	-0.289055	0.264387
270	673497012													6.778716	2.936965	1.694489	-0.284462	-0.957782	-0.041657	0.318080	-0.053301	-0.946564	0.904382	-0.282512	0.319813
271	673513679													6.436972	2.242397	1.137292	-0.276572	-0.959749	-0.048893	0.365655	-0.058047	-0.928939	0.888709	-0.274797	0.366991
272	673530346													4.939999	2.712377	-0.499190	-0.264736	-0.962211	-0.063748	0.404653	-0.050842	-0.913056	0.875312	-0.267515	0.402821
273	673547013													5.224545	1.389583	-2.313339	-0.248661	-0.964161	-0.092522	0.434189	-0.025570	-0.900459	0.865822	-0.264081	0.424987
274	673563680													6.699242	-0.501110	-4.174317	-0.233363	-0.963824	-0.128780	0.447806	0.011035	-0.894063	0.863141	-0.266309	0.429031
275	673580347													7.991976	-0.455223	-4.126876	-0.221614	-0.961187	-0.164339	0.443435	0.050761	-0.894868	0.868477	-0.271189	0.414975
276	673597014													8.652031	-1.032761	-3.137968	-0.213227	-0.957126	-0.196071	0.426358	0.089411	-0.900125	0.879064	-0.275528	0.389014
277	673613681													7.798910	-0.642712	-2.244134	-0.208865	-0.952064	-0.223493	0.401778	0.124817	-0.907191	0.891600	-0.279275	0.356449
278	673630348													0.194421	-1.110553	2.546987	-0.210665	-0.948156	-0.237950	0.374658	0.146515	-0.915513	0.902913	-0.282016	0.324369
279	673647015													-9.306588	4.774054	7.577579	-0.214094	-0.948699	-0.232665	0.358624	0.145215	-0.922118	0.908599	-0.280859	0.309137
280	673663682													-0.637840	7.755128	3.206308	-0.214652	-0.945825	-0.243599	0.352010	0.157732	-0.922610	0.911051	-0.283790	0.299082
281	673680349													11.662867	1.190902	-2.502009	-0.213956	-0.941099	-0.261829	0.335150	0.181045	-0.924606	0.917549	-0.285578	0.276674
282	673697016													5.444395	2.342257	1.288724	-0.230949	-0.942091	-0.243161	0.298310	0.169319	-0.939331	0.926107	-0.289474	0.241931
283	673713683													1.233149	0.896118	1.786351	-0.235781	-0.938817	-0.251058	0.266352	0.186019	-0.945755	0.934593	-0.289861	0.206196
284	673730350													3.390695	-1.119820	-0.339016	-0.237065	-0.927687	-0.288439	0.245746	0.229983	-0.941656	0.939898	-0.294117	0.173454
285	673747017													4.302990	0.239737	-0.182601	-0.245787	-0.922133	-0.298762	0.221351	0.246678	-0.943479	0.943712	-0.298026	0.143485
286	673763684													6.324601	-0.622702	-1.502599	-0.252396	-0.916949	-0.309032	0.196797	0.264053	-0.944218	0.947400	-0.299134	0.113807
287	673780351													5.774591	-0.453850	-1.919285	-0.259520	-0.915040	-0.308790	0.173667	0.270314	-0.946980	0.949994	-0.299387	0.088761
288	673797018													5.004300	1.201819	-0.750182	-0.269029	-0.917141	-0.294068	0.151113	0.261349	-0.953342	0.951203	-0.300915	0.068282
289	673813685													3.429060	2.334114	0.324857	-0.278048	-0.920420	-0.274804	0.129937	0.247415	-0.960157	0.951738	-0.302677	0.050803
290	673830352													0.575526	1.026426	0.752501	-0.285546	-0.922624	-0.259285	0.111721	0.236659	-0.965148	0.951831	-0.304562	0.035500
291	673847019													-0.928290	0.416641	0.188817	-0.292466	-0.921699	-0.254822	0.096095	0.236798	-0.966795	0.951435	-0.307242	0.019315
292	673863686													-0.265874	0.541234	0.351813	-0.297524	-0.917925	-0.262476	0.083289	0.248923	-0.964935	0.951074	-0.308952	0.002393
293	673880353													1.684443	0.066441	0.222449	-0.301416	-0.913261	-0.274050	0.072560	0.264614	-0.961621	0.950728	-0.309733	-0.013493
294	673897020													3.128870	-0.249494	0.046104	-0.305454	-0.910141	-0.279894	0.061865	0.274353	-0.959637	0.950195	-0.310440	-0.027496
295	673913687													2.714467	-0.239639	0.179461	-0.309615	-0.909361	-0.277850	0.050809	0.275969	-0.959823	0.949503	-0.311293	-0.039241
296	673930354													1.506662	-0.020059	0.433709	-0.313012	-0.909799	-0.272562	0.039958	0.274114	-0.960867	0.948908	-0.311654	-0.049447
297	673947021													1.062466	0.204615	0.346910	-0.315492	-0.910040	-0.268870	0.030428	0.273493	-0.961392	0.948440	-0.311493	-0.058594
298	673963688													1.046213	0.155909	0.102116	-0.317312	-0.909890	-0.267232	0.021988	0.274660	-0.961290	0.948066	-0.310905	-0.067146
299	673980355													1.147130	0.275398	0.144449	-0.318854	-0.909575	-0.266466	0.014255	0.276507	-0.960906	0.947696	-0.310188	-0.075200
300	673997022													0.990535	0.173502	0.225590	-0.320102	-0.909497	-0.265234	0.006864	0.277731	-0.960634	0.947358	-0.309322	-0.082660
301	674013689													0.981072	-0.040375	0.138043	-0.320950	-0.909872	-0.262915	-0.000333	0.277710	-0.960665	0.947096	-0.308238	-0.089434
302	674030356													0.843600	-0.071627	0.187704	-0.321638	-0.910422	-0.260155	-0.007244	0.277113	-0.960810	0.946835	-0.307149	-0.095725
303	674047023													0.836612	0.023347	0.166348	-0.322142	-0.911070	-0.257248	-0.013825	0.276232	-0.960992	0.946590	-0.306019	-0.101581
304	674063690													1.162478	0.327450	0.080593	-0.322436	-0.912117	-0.253137	-0.020328	0.274030	-0.961506	0.946373	-0.304878	-0.106899
305	674080357													1.098695	0.279294	-0.026608	-0.322796	-0.913962	-0.245919	-0.027319	0.268717	-0.962832	0.946074	-0.304080	-0.111709
306	674097024													0.486539	0.284959	-0.069674	-0.323075	-0.916466	-0.236035	-0.035103	0.260843	-0.964743	0.945722	-0.303398	-0.116442
307	674113691													-0.401288	0.150625	-0.039989	-0.323677	-0.918613	-0.226678	-0.043346	0.253720	-0.966306	0.945174	-0.302946	-0.121941
308	674130358													-0.836585	0.046577	-0.071041	-0.324425	-0.920097	-0.219476	-0.051895	0.248990	-0.967115	0.944487	-0.302366	-0.128527
309	674147025													-0.569176	0.203529	-0.062854	-0.325517	-0.920822	-0.214770	-0.060618	0.246997	-0.967118	0.943591	-0.301794	-0.136220
310	674163692													-0.127489	0.411255	0.055068	-0.326824	-0.921160	-0.211306	-0.069903	0.246533	-0.966610	0.942496	-0.301141	-0.144965
311	674180359													-0.022054	0.379699	0.090314	-0.328274	-0.921396	-0.208003	-0.079767	0.246461	-0.965864	0.941209	-0.300476	-0.154404
312	674197026													-0.002812	0.260944	0.127835	-0.329750	-0.921675	-0.204401	-0.090184	0.246274	-0.964995	0.939751	-0.299773	-0.164329
313	674213693													0.147924	0.362658	0.129279	-0.331298	-0.922050	-0.200164	-0.101311	0.245681	-0.964042	0.938071	-0.299106	-0.174807
314	674230360													0.331304	0.426808	0.305601	-0.332882	-0.922599	-0.194936	-0.113203	0.244330	-0.963062	0.936149	-0.298519	-0.185774
315	674247027													0.095051	0.254757	0.270544	-0.334318	-0.923327	-0.188942	-0.125799	0.242402	-0.961985	0.934027	-0.297840	-0.197193
316	674263694													-0.097761	-0.248249	0.230020	-0.335581	-0.924188	-0.182377	-0.139081	0.240091	-0.960736	0.931688	-0.297040	-0.209107
317	674280361													-0.281343	-0.667770	0.307141	-0.336508	-0.925228	-0.175256	-0.153463	0.237504	-0.959188	0.929092	-0.295879	-0.221910
318	674297028													-0.736987	-0.779175	0.212848	-0.336979	-0.926571	-0.167068	-0.169363	0.234207	-0.957321	0.926154	-0.294302	-0.235849
319	674313695													-0.975514	-0.713748	0.138355	-0.337223	-0.928001	-0.158416	-0.186888	0.230913	-0.954857	0.922688	-0.292394	-0.251301
320	674330362													-1.019385	-0.266071	0.450080	-0.337267	-0.929314	-0.150424	-0.205820	0.228709	-0.951488	0.918634	-0.289945	-0.268407
321	674347029													-0.763328	-0.138701	0.647144	-0.336870	-0.930630	-0.142989	-0.225945	0.227329	-0.947244	0.914039	-0.286790	-0.286851
322	674363696													-0.526533	-0.197038	0.859691	-0.335962	-0.932169	-0.134871	-0.247495	0.225533	-0.942274	0.908777	-0.283189	-0.306478
323	674380363													-0.646570	-0.284025	1.277345	-0.334261	-0.934122	-0.125244	-0.270789	0.222471	-0.936579	0.902742	-0.279147	-0.327313
324	674397030													-0.912694	-0.311683	1.819259	-0.331805	-0.936394	-0.114332	-0.295520	0.218275	-0.930067	0.895865	-0.274813	-0.349148
325	674413697													-1.483628	0.516836	2.296305	-0.328255	-0.938979	-0.102795	-0.321721	0.213455	-0.922460	0.888113	-0.269730	-0.372157
326	674430364													-2.049492	1.393189	2.555549	-0.323240	-0.942095	-0.089294	-0.349239	0.206458	-0.914006	0.879516	-0.264258	-0.395752
327	674447031													-2.552739	1.870776	2.562825	-0.316417	-0.945710	-0.074251	-0.378682	0.197689	-0.904167	0.869758	-0.257977	-0.420676
328	674463698													-3.189658	2.259881	2.723867	-0.307362	-0.949863	-0.057351	-0.410696	0.186779	-0.892436	0.858404	-0.250747	-0.447514
329	674480365													-4.103626	2.876634	2.454936	-0.297746	-0.953772	-0.040815	-0.443770	0.176135	-0.878661	0.845231	-0.243505	-0.475699
330	674497032													-5.373020	2.686808	2.404170	-0.288218	-0.957241	-0.024913	-0.477540	0.166237	-0.862740	0.829991	-0.236761	-0.505034
331	674513699													-7.229147	1.754385	1.028570	-0.276955	-0.960851	-0.007877	-0.512027	0.154513	-0.844958	0.813095	-0.229981	-0.534775
332	674530366													-7.598337	0.950112	-0.606916	-0.266145	-0.963898	0.008186	-0.545483	0.143602	-0.825728	0.794742	-0.224228	-0.564009
333	674547033													-6.874642	0.231132	-0.871921	-0.256485	-0.966307	0.021598	-0.577908	0.135405	-0.804791	0.774750	-0.218898	-0.593166
334	674563700													-5.818124	-0.522807	0.229536	-0.249580	-0.967892	0.029930	-0.609054	0.132871	-0.781920	0.752837	-0.213381	-0.622660
335	674580367													-4.254409	-1.552367	2.111269	-0.247526	-0.968335	0.032523	-0.639245	0.137994	-0.756521	0.728078	-0.208049	-0.653160
336	674597034													-4.399324	-1.351666	2.303348	-0.250165	-0.967655	0.032590	-0.668222	0.148199	-0.729052	0.700641	-0.204161	-0.683682
337	674613701													-4.234694	-1.775623	1.159251	-0.256615	-0.965967	0.032504	-0.694062	0.160769	-0.701734	0.672627	-0.202635	-0.711697
338	674630368													-3.523188	-1.861214	-0.823461	-0.264613	-0.963721	0.034960	-0.715316	0.171836	-0.677344	0.646763	-0.204241	-0.734835
339	674647035													-2.440960	-2.034227	-1.477785	-0.271140	-0.961636	0.041701	-0.731266	0.177627	-0.658557	0.625885	-0.209056	-0.751374
340	674663702													-0.737272	-1.300624	-0.273671	-0.273189	-0.960615	0.050849	-0.742631	0.177007	-0.645885	0.611447	-0.214211	-0.761739
341	674680369													-0.592257	-1.816726	-0.627841	-0.272517	-0.960337	0.059063	-0.750570	0.173781	-0.637530	0.601979	-0.218069	-0.768158
342	674697036													-0.503789	-1.353382	-2.904663	-0.263322	-0.962104	0.070838	-0.756412	0.160335	-0.634140	0.598751	-0.220566	-0.769966
343	674713703													-0.994532	-0.933507	-4.798776	-0.256428	-0.963408	0.078034	-0.755265	0.149336	-0.638180	0.603174	-0.222583	-0.765923
344	674730370													-2.283036	-0.956303	-6.041086	-0.251195	-0.964511	0.081357	-0.747653	0.139959	-0.649173	0.614748	-0.223896	-0.756277
345	674747037													-2.712812	0.045366	-6.683047	-0.251202	-0.964599	0.080290	-0.732823	0.135339	-0.666824	0.632351	-0.226346	-0.740877
346	674763704													-2.175038	-0.112097	-6.053126	-0.262104	-0.962530	0.069546	-0.708650	0.143051	-0.690907	0.655070	-0.230373	-0.719591
347	674780371													-1.681173	-1.016471	-4.897574	-0.278762	-0.958976	0.051544	-0.676274	0.157910	-0.719526	0.681869	-0.235435	-0.692550
348	674797038													-1.917737	-1.315536	-4.576745	-0.295486	-0.954920	0.028555	-0.636663	0.174545	-0.751128	0.712284	-0.240128	-0.659538
349	674813705													-2.046133	-0.768680	-4.583819	-0.311479	-0.950253	0.000430	-0.589124	0.192751	-0.784716	0.745596	-0.244675	-0.619855
350	674830372													-2.105127	-0.365890	-3.894161	-0.326645	-0.944583	-0.032650	-0.532732	0.212538	-0.819161	0.780705	-0.250181	-0.572634
351	674847039													-1.620828	0.012141	-2.033559	-0.338239	-0.938751	-0.065886	-0.469387	0.228976	-0.852787	0.815641	-0.257520	-0.518086
352	674863706													-0.468072	0.740246	0.365335	-0.343384	-0.934349	-0.095283	-0.401764	0.237833	-0.884320	0.848925	-0.265380	-0.457056
353	674880373													1.341862	1.419024	1.504157	-0.341315	-0.932637	-0.117014	-0.332147	0.236130	-0.913193	0.879308	-0.272820	-0.390368
354	674897040													2.133866	2.077392	1.703775	-0.332712	-0.934368	-0.127513	-0.261734	0.221398	-0.939403	0.905979	-0.279176	-0.318218
355	674913707													2.306317	2.438165	2.204143	-0.320240	-0.938845	-0.126558	-0.190654	0.194732	-0.962149	0.927953	-0.283990	-0.241355
356	674930374													2.191785	2.649000	2.801978	-0.306257	-0.944884	-0.115765	-0.118548	0.158517	-0.980214	0.944539	-0.286473	-0.160561
357	674947041													1.768701	2.672586	3.028186	-0.292612	-0.951092	-0.099004	-0.045729	0.117335	-0.992039	0.955137	-0.285756	-0.077826
358	674963708													1.692967	2.560209	2.851738	-0.280358	-0.956061	-0.085709	0.029184	0.080759	-0.996306	0.959452	-0.281823	0.005261
359	674980375													2.410502	2.467201	3.106239	-0.269071	-0.959926	-0.078375	0.105278	0.051574	-0.993105	0.957349	-0.275466	0.087182
360	674997042													4.369348	2.596898	3.397088	-0.258187	-0.963222	-0.074453	0.179045	0.028023	-0.983442	0.949359	-0.267242	0.165224
361	675013709													6.879633	2.196000	4.243288	-0.247302	-0.965973	-0.075745	0.248743	0.012261	-0.968492	0.936466	-0.258351	0.237247
362	675030376													7.924391	1.891458	3.659830	-0.233803	-0.968735	-0.082995	0.313129	0.005791	-0.949693	0.920482	-0.248029	0.301986
363	675047043													6.322006	0.977719	1.383926	-0.214968	-0.971389	-0.100958	0.370170	0.014618	-0.928849	0.903749	-0.237044	0.356437
364	675063710													7.006857	1.147666	-1.674502	-0.194495	-0.972650	-0.126983	0.412294	0.036402	-0.910323	0.890048	-0.229408	0.393938
365	675080377													6.673112	-0.360551	-4.199528	-0.175653	-0.971573	-0.158721	0.434686	0.068115	-0.898003	0.883286	-0.226730	0.410364
366	675097044													6.343548	-0.428761	-4.451821	-0.160075	-0.967828	-0.194126	0.434696	0.107450	-0.894144	0.886237	-0.227516	0.403511
367	675113711													9.476168	-1.253244	-3.825463	-0.148758	-0.961618	-0.230568	0.416117	0.150642	-0.896746	0.897061	-0.229341	0.377736
368	675130378													12.255903	-2.714416	-5.164482	-0.143634	-0.954433	-0.261585	0.384187	0.189818	-0.903532	0.912014	-0.230276	0.339416
369	675147045													6.183002	-4.349269	0.221919	-0.150412	-0.950839	-0.270705	0.346082	0.205853	-0.915343	0.926069	-0.231365	0.298105
370	675163712													-7.490505	3.861089	7.972563	-0.167088	-0.957637	-0.234549	0.319154	0.172550	-0.931862	0.932857	-0.230560	0.276802
371	675180379													0.195935	7.334722	5.260383	-0.181727	-0.959699	-0.214366	0.306609	0.151829	-0.939648	0.934327	-0.236486	0.266661
372	675197046													10.538808	-0.819764	-0.550036	-0.187343	-0.957183	-0.220690	0.288124	0.161239	-0.943921	0.939088	-0.240423	0.245581
373	675213713													6.504465	-1.286369	2.307716	-0.209857	-0.956698	-0.201714	0.251542	0.146534	-0.956689	0.944821	-0.251508	0.209899
374	675230380													0.538087	2.822773	2.552091	-0.225478	-0.954023	-0.197481	0.215019	0.148972	-0.965181	0.950224	-0.260090	0.171543
375	675247047													1.643803	2.849386	-0.868357	-0.232791	-0.949164	-0.211887	0.187216	0.170061	-0.967486	0.954337	-0.264891	0.138110
376	675263714													5.432601	-0.332283	-2.116866	-0.237517	-0.943239	-0.232132	0.162832	0.196928	-0.966801	0.957639	-0.267430	0.106816
377	675280381													4.356023	-0.755911	-1.013161	-0.243921	-0.938389	-0.244802	0.138118	0.216239	-0.966522	0.959909	-0.269566	0.076863
378	675297048													2.704079	0.011086	-0.691648	-0.251738	-0.934901	-0.250177	0.115133	0.227737	-0.966892	0.960923	-0.272207	0.050308
379	675313715													6.039534	-0.710454	-1.085743	-0.258964	-0.934819	-0.243005	0.093785	0.226062	-0.969588	0.961323	-0.273878	0.029130
380	675330382													2.985738	0.893586	0.089047	-0.266237	-0.936280	-0.229123	0.074081	0.217124	-0.973329	0.961057	-0.276110	0.011554
381	675347049													0.063780	0.812722	0.799799	-0.271728	-0.936780	-0.220472	0.056765	0.213091	-0.975382	0.960699	-0.277554	-0.004727
382	675363716													-0.838580	0.667686	0.042932	-0.276179	-0.934923	-0.222808	0.042193	0.219806	-0.974631	0.960179	-0.278574	-0.021258
383	675380383													-0.292720	0.191164	-0.042757	-0.279783	-0.931115	-0.233979	0.028721	0.235485	-0.971453	0.959634	-0.278516	-0.039142
384	675397050													1.737724	-0.251081	-0.001416	-0.283219	-0.926449	-0.247950	0.016244	0.253865	-0.967103	0.958918	-0.277930	-0.056849
385	675413717													3.228712	0.046288	0.217405	-0.286487	-0.923128	-0.256438	0.003930	0.266523	-0.963821	0.958076	-0.277130	-0.072727
386	675430384													3.319252	0.193212	0.297518	-0.289346	-0.921972	-0.257386	-0.007805	0.271151	-0.962505	0.957193	-0.276488	-0.085653
387	675447051													2.219919	0.013977	0.196450	-0.291375	-0.922300	-0.253898	-0.018331	0.270750	-0.962475	0.956433	-0.275787	-0.095797
388	675463718													1.433177	0.003038	-0.003568	-0.292731	-0.922921	-0.250052	-0.027462	0.269514	-0.962605	0.955800	-0.274918	-0.104241
389	675480385													1.034137	0.167352	0.054682	-0.293592	-0.923269	-0.247746	-0.035641	0.269559	-0.962324	0.955266	-0.273701	-0.112047
390	675497052													0.833443	-0.056722	0.091102	-0.294041	-0.923195	-0.247491	-0.042696	0.271367	-0.961528	0.954839	-0.272161	-0.119210
391	675513719													1.073318	0.152542	0.114959	-0.294303	-0.922712	-0.248973	-0.048311	0.274541	-0.960361	0.954490	-0.270610	-0.125375
392	675530386													1.477445	0.527868	0.214088	-0.294318	-0.922396	-0.250126	-0.053233	0.277134	-0.959356	0.954224	-0.269041	-0.130667
393	675547053													1.690407	1.165768	0.357909	-0.294256	-0.922805	-0.248686	-0.058275	0.277046	-0.959088	0.953948	-0.267725	-0.135299
394	675563720													1.164922	1.099481	0.252216	-0.294240	-0.923899	-0.244608	-0.063236	0.274197	-0.959592	0.953637	-0.266882	-0.139103
395	675580387													0.506415	0.459907	-0.054762	-0.294340	-0.925400	-0.238745	-0.068283	0.269537	-0.960566	0.953258	-0.266431	-0.142524
396	675597054													0.043900	0.553153	-0.000029	-0.294781	-0.926859	-0.232457	-0.073984	0.264674	-0.961496	0.952696	-0.266233	-0.146593
397	675613721													-0.220156	0.108123	-0.061101	-0.295293	-0.928228	-0.226263	-0.080193	0.260069	-0.962254	0.952035	-0.266002	-0.151234
398	675630388													-0.372194	0.001364	-0.262221	-0.296177	-0.929265	-0.220785	-0.086880	0.256409	-0.962656	0.951174	-0.265934	-0.156677
399	675647055													-0.377042	0.070425	0.002515	-0.297259	-0.930085	-0.215824	-0.094556	0.253607	-0.962675	0.950103	-0.265756	-0.163332
400	675663722													-0.479092	0.261624	0.123219	-0.298466	-0.930686	-0.211525	-0.103084	0.251764	-0.962283	0.948837	-0.265403	-0.171082
401	675680389													-0.875123	0.159082	-0.028810	-0.299804	-0.931120	-0.207687	-0.112568	0.250707	-0.961496	0.947336	-0.264882	-0.179977
402	675697056													-1.613430	-0.166187	-0.369699	-0.301314	-0.931251	-0.204895	-0.123375	0.251151	-0.960053	0.945510	-0.263998	-0.190568
403	675713723													-1.689989	-0.588847	-0.344841	-0.302799	-0.931195	-0.202948	-0.136548	0.253136	-0.957746	0.943222	-0.262293	-0.203802
404	675730390													-1.211268	-0.415885	0.234112	-0.304092	-0.931198	-0.200995	-0.152732	0.255914	-0.954558	0.940320	-0.259575	-0.220045
405	675747057													-0.528445	-0.108031	0.920209	-0.305148	-0.931572	-0.197633	-0.171145	0.257799	-0.950920	0.936800	-0.256347	-0.238101
406	675763724													-0.605974	-0.214420	0.994809	-0.305396	-0.932865	-0.191039	-0.191448	0.256679	-0.947345	0.932781	-0.252741	-0.256984
407	675780391													-1.732351	-0.668710	0.379579	-0.304692	-0.935087	-0.181042	-0.214273	0.252504	-0.943572	0.928036	-0.248706	-0.277299
408	675797058													-2.329696	-1.110777	0.161846	-0.303401	-0.937529	-0.170254	-0.239952	0.248092	-0.938549	0.922155	-0.243904	-0.300233
409	675813725													-2.355222	-0.912880	0.212759	-0.301888	-0.939613	-0.161217	-0.268198	0.245982	-0.931430	0.914840	-0.237950	-0.326262
410	675830392													-1.929609	-0.902907	0.439628	-0.300024	-0.941544	-0.153237	-0.299086	0.245382	-0.922136	0.905833	-0.230832	-0.355223
411	675847059													-2.023089	-0.200419	1.513392	-0.297219	-0.943832	-0.144370	-0.333266	0.244242	-0.910648	0.894759	-0.222548	-0.387141
412	675863726													-2.825086	0.646837	3.049972	-0.292642	-0.946847	-0.133572	-0.371109	0.241199	-0.896717	0.881271	-0.212847	-0.421969
413	675880393													-4.437374	1.336032	4.632330	-0.285960	-0.950804	-0.119159	-0.411907	0.234245	-0.880603	0.865193	-0.202735	-0.458628
414	675897060													-5.866231	2.912524	4.786787	-0.277143	-0.955418	-0.101821	-0.454349	0.223691	-0.862282	0.846616	-0.192713	-0.496087
415	675913727													-7.807860	3.227622	4.913338	-0.265631	-0.960375	-0.084376	-0.499281	0.211908	-0.840127	0.824718	-0.181036	-0.535786
416	675930394													-12.160082	2.652924	4.192441	-0.253521	-0.964830	-0.069502	-0.546219	0.202083	-0.812901	0.798356	-0.168124	-0.578241
417	675947061													-13.794485	0.893653	1.443433	-0.241144	-0.968860	-0.056205	-0.591814	0.192705	-0.782701	0.769159	-0.155481	-0.619855
418	675963728													-12.697885	-1.553380	0.434779	-0.228761	-0.972381	-0.046295	-0.633865	0.184878	-0.751023	0.738840	-0.142460	-0.658651
419	675980395													-8.204753	-2.752850	1.722675	-0.221974	-0.973919	-0.047009	-0.671435	0.187636	-0.716915	0.707038	-0.127573	-0.695574
420	675997062													-4.492234	-2.933435	2.922530	-0.225584	-0.972749	-0.053593	-0.705105	0.200982	-0.680024	0.672264	-0.115614	-0.731228
421	676013729													-4.823947	-2.260189	1.102187	-0.235224	-0.970076	-0.060175	-0.735628	0.218156	-0.641295	0.635233	-0.106582	-0.764931
422	676030396													-3.096874	-2.361857	-0.014269	-0.253873	-0.964945	-0.066559	-0.757248	0.241097	-0.606998	0.601767	-0.103699	-0.791911
423	676047063													-1.810075	-3.655710	-0.107642	-0.269009	-0.960814	-0.066867	-0.770421	0.256327	-0.583736	0.578001	-0.105514	-0.809186
424	676063730													-1.274425	-1.013579	-0.775227	-0.271914	-0.960310	-0.062192	-0.778791	0.257559	-0.571968	0.565285	-0.107091	-0.817915
425	676080397													0.655350	-0.835087	-2.452764	-0.269455	-0.961314	-0.057182	-0.782908	0.253250	-0.568260	0.560758	-0.108352	-0.820860
426	676097064													0.550404	-2.020943	-4.183917	-0.268057	-0.961757	-0.056297	-0.781375	0.251221	-0.571262	0.563558	-0.109142	-0.818835
427	676113731													-1.989766	-2.117172	-6.897608	-0.261326	-0.963628	-0.055946	-0.774995	0.244016	-0.582957	0.575405	-0.108984	-0.810575
428	676130398													-2.277459	-0.444802	-8.606998	-0.262042	-0.963007	-0.062859	-0.759641	0.246001	-0.602021	0.595214	-0.110005	-0.796002
429	676147065													-1.364276	-0.823983	-7.553555	-0.277875	-0.957271	-0.080112	-0.732873	0.265172	-0.626562	0.621033	-0.115394	-0.775243
430	676163732													-0.729914	-1.265421	-5.654347	-0.296872	-0.949627	-0.100373	-0.697904	0.287510	-0.655948	0.651764	-0.124682	-0.748103
431	676180399													-0.906481	-0.743969	-4.711198	-0.314002	-0.941656	-0.121186	-0.655391	0.307336	-0.689932	0.686924	-0.137216	-0.713658
432	676197066													-1.376266	-0.462103	-4.512981	-0.329135	-0.932946	-0.145886	-0.603949	0.326744	-0.726969	0.725890	-0.151163	-0.670994
433	676213733													-1.176686	-0.432836	-4.498566	-0.340645	-0.923798	-0.174809	-0.543540	0.345208	-0.765111	0.767154	-0.165616	-0.619715
434	676230400													-0.560620	0.261676	-3.599859	-0.346708	-0.915601	-0.203636	-0.476106	0.358843	-0.802842	0.808156	-0.181400	-0.560337
435	676247067													-0.082410	0.691701	-2.003177	-0.347032	-0.908871	-0.231346	-0.401368	0.366873	-0.839231	0.847628	-0.198385	-0.492108
436	676263734													0.786570	1.456027	-1.096206	-0.341874	-0.904906	-0.253510	-0.321451	0.366098	-0.873293	0.883058	-0.217066	-0.416042
437	676280401													1.153311	2.236912	0.083808	-0.333332	-0.903120	-0.270673	-0.236890	0.358109	-0.903128	0.912564	-0.236922	-0.333309
438	676297068													1.314625	2.813592	0.967581	-0.322491	-0.902482	-0.285527	-0.147893	0.345978	-0.926513	0.934948	-0.256565	-0.245046
439	676313735													2.692347	2.541430	2.706015	-0.309200	-0.904001	-0.295260	-0.056789	0.327471	-0.943153	0.949300	-0.274855	-0.152591
440	676330402													5.111529	2.086317	4.329995	-0.293513	-0.909425	-0.294611	0.033406	0.298239	-0.953906	0.955371	-0.289825	-0.057156
441	676347069													6.193913	3.113019	5.249469	-0.277083	-0.918699	-0.281454	0.121311	0.257131	-0.958732	0.953157	-0.299792	0.040202
442	676363736													7.693817	4.469518	6.364363	-0.263346	-0.928608	-0.261411	0.204692	0.211019	-0.955810	0.942735	-0.305218	0.134508
443	676380403													9.909996	4.228673	5.570823	-0.252255	-0.936580	-0.243283	0.283438	0.168871	-0.944005	0.925219	-0.307085	0.222864
444	676397070													7.874468	3.679947	4.776820	-0.237042	-0.943692	-0.230774	0.352699	0.137743	-0.925543	0.905215	-0.300787	0.300188
445	676413737													6.153506	2.100140	-0.076483	-0.217289	-0.948467	-0.230644	0.407072	0.126710	-0.904565	0.887174	-0.290441	0.358561
446	676430404													7.720214	-0.116893	-6.442188	-0.199445	-0.947343	-0.250524	0.442846	0.140925	-0.885453	0.874133	-0.287543	0.391420
447	676447071													9.319357	0.402771	-5.928888	-0.187516	-0.941449	-0.280200	0.450327	0.171119	-0.876313	0.872951	-0.290504	0.391872
448	676463738													13.766764	0.799897	-4.507163	-0.178916	-0.933240	-0.311532	0.431850	0.210017	-0.877153	0.884022	-0.291472	0.365445
449	676480405													15.415356	-0.000410	-4.599809	-0.173948	-0.926082	-0.334836	0.397207	0.245150	-0.884380	0.901093	-0.286835	0.325203
450	676497072													8.100803	-3.412071	-0.975963	-0.182592	-0.923964	-0.336080	0.356880	0.256228	-0.898323	0.916132	-0.283967	0.282959
451	676513739													-9.483319	1.228403	8.594156	-0.202955	-0.933241	-0.296429	0.326676	0.220853	-0.918970	0.923088	-0.283346	0.260044
452	676530406													-3.742524	8.726386	8.273907	-0.225452	-0.938181	-0.262654	0.311961	0.185882	-0.931734	0.922958	-0.291999	0.250768
453	676547073													10.913447	1.028719	0.108985	-0.226774	-0.933975	-0.276158	0.297420	0.203592	-0.932787	0.927424	-0.293667	0.231613
454	676563740													8.770480	-1.563223	1.186875	-0.247317	-0.932990	-0.261466	0.257826	0.196753	-0.945946	0.934002	-0.301362	0.191889
455	676580407													0.705767	4.044918	1.824666	-0.263246	-0.932510	-0.247238	0.209464	0.194916	-0.958193	0.941715	-0.304028	0.144016
456	676597074													2.718627	5.158533	-0.005739	-0.269983	-0.927404	-0.258905	0.173533	0.217621	-0.960483	0.947099	-0.304242	0.102181
457	676613741													6.158477	1.240824	-1.475453	-0.274153	-0.920283	-0.279142	0.147249	0.246670	-0.957847	0.950346	-0.303700	0.067885
458	676630408													3.108571	-1.090164	-2.339585	-0.280936	-0.912278	-0.298034	0.124005	0.273433	-0.953864	0.951681	-0.304933	0.036310
459	676647075													2.666559	-1.204733	-1.365786	-0.290712	-0.904305	-0.312602	0.101354	0.295769	-0.949867	0.951427	-0.307821	0.005671
460	676663742													5.738462	1.058799	-0.212894	-0.299781	-0.899231	-0.318614	0.080526	0.308931	-0.947669	0.950603	-0.309750	-0.020200
461	676680409													5.582797	0.182358	0.630348	-0.306897	-0.898950	-0.312574	0.059684	0.309598	-0.948993	0.949869	-0.309899	-0.041362
462	676697076													2.993167	0.032252	0.537960	-0.313420	-0.901158	-0.299470	0.038812	0.302940	-0.952219	0.948821	-0.310068	-0.059972
463	676713743													0.906041	0.868958	0.654824	-0.319621	-0.902537	-0.288564	0.020248	0.297963	-0.954363	0.947329	-0.310877	-0.076961
464	676730410													-0.308945	0.625620	0.561037	-0.324698	-0.901373	-0.286526	0.005175	0.301242	-0.953534	0.945803	-0.311094	-0.093148
465	676747077													0.367017	0.186293	0.102764	-0.329156	-0.898006	-0.291962	-0.006774	0.311429	-0.950245	0.944251	-0.310801	-0.108592
466	676763744													1.949398	0.707147	0.701103	-0.333576	-0.893988	-0.299187	-0.017582	0.323210	-0.946164	0.942559	-0.310357	-0.123533
467	676780411													2.942683	0.815672	0.696916	-0.337127	-0.891482	-0.302662	-0.028439	0.330979	-0.943210	0.941029	-0.309374	-0.136935
468	676797078													2.763473	0.351026	0.245403	-0.339722	-0.891087	-0.300920	-0.038959	0.333006	-0.942119	0.939719	-0.308335	-0.147846
469	676813745													2.078129	0.201732	0.291339	-0.341347	-0.892157	-0.295869	-0.048947	0.331220	-0.942283	0.938662	-0.307164	-0.156729
470	676830412													1.330139	0.430630	0.438404	-0.342279	-0.893957	-0.289285	-0.058596	0.327591	-0.943001	0.937770	-0.305818	-0.164509
471	676847079													0.512989	0.425923	0.369262	-0.342783	-0.895855	-0.282745	-0.067545	0.323704	-0.943744	0.936983	-0.304401	-0.171471
472	676863746													-0.241504	0.185748	-0.090110	-0.343112	-0.897371	-0.277487	-0.075715	0.320883	-0.944088	0.936238	-0.302918	-0.178043
473	676880413													-0.084245	0.614766	-0.222709	-0.343799	-0.898050	-0.274424	-0.083546	0.320331	-0.943615	0.935320	-0.301486	-0.185158
474	676897080													0.407737	0.802374	-0.140106	-0.344762	-0.898563	-0.271521	-0.091978	0.320200	-0.942874	0.934173	-0.300093	-0.193041
475	676913747													0.375948	0.372168	-0.060018	-0.345581	-0.899592	-0.267035	-0.101383	0.318694	-0.942420	0.932896	-0.298609	-0.201338
476	676930414													0.363626	-0.025326	0.042192	-0.346073	-0.901473	-0.259959	-0.112016	0.314800	-0.942525	0.931496	-0.297063	-0.209923
477	676947081													0.792008	0.119716	0.163303	-0.346943	-0.903675	-0.251002	-0.123172	0.309209	-0.942984	0.929763	-0.296245	-0.218586
478	676963748													0.782777	0.462246	0.144190	-0.347644	-0.906709	-0.238794	-0.135210	0.300496	-0.944151	0.927827	-0.295941	-0.227062
479	676980415													0.242926	0.539387	0.022853	-0.348236	-0.910115	-0.224550	-0.148005	0.289920	-0.945537	0.925649	-0.296035	-0.235662
480	676997082													-0.287088	0.443959	-0.023012	-0.348853	-0.913384	-0.209839	-0.161588	0.279174	-0.946547	0.923142	-0.296298	-0.244983
481	677013749													-0.653463	0.239373	-0.028018	-0.349346	-0.916209	-0.196260	-0.175807	0.269830	-0.946722	0.920353	-0.296230	-0.255340
482	677030416													-0.691282	0.105303	0.106682	-0.349879	-0.918342	-0.185020	-0.190688	0.263185	-0.945712	0.917182	-0.295604	-0.267200
483	677047083													-0.466734	0.027857	0.295553	-0.350722	-0.919913	-0.175370	-0.206091	0.258492	-0.943773	0.913521	-0.294860	-0.280244
484	677063750													-0.369623	0.101022	0.337997	-0.351618	-0.921439	-0.165271	-0.222382	0.253707	-0.941371	0.909346	-0.294249	-0.294119
485	677080417													-0.800043	0.245237	0.535032	-0.352165	-0.923206	-0.153853	-0.240221	0.248036	-0.938495	0.904585	-0.293546	-0.309122
486	677097084													-1.696858	0.790899	0.444324	-0.352132	-0.924916	-0.143295	-0.259490	0.243576	-0.934524	0.899260	-0.291892	-0.325777
487	677113751													-2.511646	0.658420	0.170020	-0.352102	-0.926218	-0.134701	-0.280605	0.241760	-0.928877	0.892908	-0.289262	-0.345025
488	677130418													-2.905996	0.608123	0.312121	-0.352456	-0.926856	-0.129277	-0.303857	0.244000	-0.920942	0.885124	-0.285310	-0.367631
489	677147085													-2.732859	0.111736	0.771110	-0.352206	-0.927625	-0.124347	-0.330340	0.247521	-0.910829	0.875686	-0.279723	-0.393610
490	677163752													-2.387072	-0.009241	1.231502	-0.350996	-0.928969	-0.117552	-0.360256	0.249848	-0.898772	0.864301	-0.273117	-0.422363
491	677180419													-2.300076	0.287722	2.499772	-0.348388	-0.931132	-0.107788	-0.393293	0.249587	-0.884888	0.850851	-0.265892	-0.453161
492	677197086													-3.294400	0.598885	4.007711	-0.342081	-0.935047	-0.093096	-0.430049	0.243875	-0.869242	0.835487	-0.257316	-0.485542
493	677213753													-5.462264	1.778516	4.301741	-0.333264	-0.939728	-0.076466	-0.468770	0.235518	-0.851343	0.818040	-0.247877	-0.519006
494	677230420													-8.079454	2.406070	3.857034	-0.322896	-0.944680	-0.057603	-0.508776	0.224579	-0.831090	0.798051	-0.239049	-0.553146
495	677247087													-11.793776	2.527452	3.336859	-0.310390	-0.949883	-0.037143	-0.550733	0.211534	-0.807432	0.774823	-0.230163	-0.588790
496	677263754													-14.869131	1.984023	0.815670	-0.297266	-0.954640	-0.017188	-0.592196	0.198466	-0.780971	0.748957	-0.221977	-0.624331
497	677280421													-13.215331	1.039766	-0.341123	-0.286051	-0.958213	-0.001428	-0.630569	0.189363	-0.752678	0.721497	-0.214404	-0.658387
498	677297088													-9.101627	-1.183833	2.124968	-0.281472	-0.959558	0.004616	-0.666101	0.191924	-0.720746	0.690712	-0.205945	-0.693184
499	677313755													-5.409901	-2.770216	4.091934	-0.285133	-0.958486	0.001823	-0.699176	0.206692	-0.684421	0.655631	-0.196426	-0.729085
500	677330422													-5.407456	-2.270141	2.617351	-0.294329	-0.955703	-0.001174	-0.729848	0.225565	-0.645323	0.617002	-0.189081	-0.763909
501	677347089													-5.696246	-1.748534	-0.747610	-0.306603	-0.951836	-0.001652	-0.754511	0.244098	-0.609204	0.580265	-0.185537	-0.793012
502	677363756													-3.594110	-1.773103	-1.138995	-0.319752	-0.947501	0.000546	-0.770089	0.259546	-0.582751	0.552015	-0.186757	-0.812651
503	677380423													-1.574441	-0.703435	-0.576668	-0.325225	-0.945618	0.005999	-0.779646	0.264541	-0.567600	0.535146	-0.189274	-0.823282
504	677397090													0.751177	-0.840730	-1.844303	-0.323522	-0.946135	0.012733	-0.785724	0.261124	-0.560760	0.527229	-0.191423	-0.827881
505	677413757													1.483640	-1.650324	-2.828039	-0.316783	-0.948263	0.021095	-0.788777	0.251022	-0.561088	0.526764	-0.194382	-0.827488
506	677430424													-0.658557	-1.895972	-5.678788	-0.302789	-0.952625	0.028710	-0.788145	0.233345	-0.569541	0.535860	-0.195078	-0.821461
507	677447091													-2.184852	-0.210086	-8.188694	-0.289185	-0.956669	0.033994	-0.779951	0.214879	-0.587796	0.555022	-0.196496	-0.808295
508	677463758													-2.331870	0.797629	-8.819357	-0.290772	-0.956369	0.028471	-0.758627	0.212314	-0.615961	0.583041	-0.200703	-0.787262
509	677480425													-1.918529	-0.301002	-6.621597	-0.305236	-0.952173	0.014037	-0.725756	0.223061	-0.650785	0.616529	-0.208831	-0.759132
510	677497092													-1.339302	-0.758447	-5.076583	-0.321557	-0.946883	-0.003787	-0.685123	0.235422	-0.689336	0.653612	-0.219066	-0.724432
511	677513759													-1.395222	-0.502869	-4.879471	-0.337216	-0.941046	-0.026794	-0.636095	0.248736	-0.730420	0.694024	-0.229266	-0.682472
512	677530426													-1.805434	0.017672	-4.759796	-0.351465	-0.934492	-0.056539	-0.577452	0.263925	-0.772589	0.736900	-0.238890	-0.632384
513	677547093													-1.985577	0.663889	-3.621426	-0.363536	-0.927195	-0.090282	-0.509466	0.279012	-0.814001	0.779927	-0.249923	-0.573805
514	677563760													-1.036948	1.075090	-1.208441	-0.371156	-0.920194	-0.124440	-0.433837	0.290330	-0.852933	0.820992	-0.262585	-0.506972
515	677580427													0.905977	2.004923	1.019098	-0.370983	-0.916118	-0.151988	-0.354545	0.290997	-0.888605	0.858295	-0.275771	-0.432760
516	677597094													2.835856	2.550987	1.434476	-0.362690	-0.916522	-0.168650	-0.274152	0.277900	-0.920659	0.890672	-0.287678	-0.352058
517	677613761													3.229343	2.841851	1.467437	-0.349162	-0.920602	-0.174864	-0.192048	0.252950	-0.948227	0.917171	-0.297502	-0.265120
518	677630428													4.148342	2.607263	2.615149	-0.333349	-0.928187	-0.165372	-0.109942	0.212477	-0.970961	0.936371	-0.305487	-0.172875
519	677647095													4.936059	1.859276	3.101702	-0.318405	-0.936765	-0.145224	-0.026490	0.161930	-0.986447	0.947585	-0.310242	-0.076374
520	677663762													4.399713	2.526751	3.170531	-0.306356	-0.944001	-0.122507	0.057957	0.109960	-0.992245	0.950151	-0.311080	0.021024
521	677680429													5.375634	3.317367	4.172554	-0.296593	-0.949682	-0.100681	0.141605	0.060527	-0.988071	0.944447	-0.307312	0.116527
522	677697096													9.475002	3.229667	5.229973	-0.289647	-0.953732	-0.080619	0.219609	0.015761	-0.975461	0.931599	-0.300244	0.204884
523	677713763													10.658020	1.994981	5.417239	-0.282319	-0.957309	-0.062099	0.288711	-0.023055	-0.957139	0.914845	-0.288147	0.282894
524	677730430													9.513063	3.475053	2.574388	-0.268878	-0.962049	-0.046546	0.346694	-0.051583	-0.936559	0.898614	-0.267957	0.347406
525	677747097													5.204157	-0.189708	-4.182559	-0.251715	-0.966630	-0.047600	0.394393	-0.057539	-0.917139	0.883795	-0.249631	0.395716
526	677763764													7.745750	-2.550469	-6.121773	-0.240228	-0.968493	-0.065662	0.422896	-0.043530	-0.905132	0.873756	-0.245206	0.420029
527	677780431													7.659111	-0.166198	-4.073176	-0.232345	-0.968499	-0.089582	0.427156	-0.018861	-0.903981	0.873816	-0.248301	0.418082
528	677797098													10.243237	-1.764393	-4.606712	-0.226077	-0.967116	-0.116517	0.410700	0.013830	-0.911666	0.883298	-0.253960	0.394068
529	677813765													10.696688	-2.286284	-4.215338	-0.224336	-0.964515	-0.139227	0.380154	0.044935	-0.923831	0.897305	-0.260176	0.356584
530	677830432													3.023804	-3.322765	1.570169	-0.230558	-0.961812	-0.147514	0.343650	0.061345	-0.937092	0.910356	-0.266747	0.316383
531	677847099													-10.935851	5.849898	10.348000	-0.244275	-0.963028	-0.113604	0.316111	0.031671	-0.948193	0.916735	-0.267532	0.296687
532	677863766													1.639921	11.474147	7.113129	-0.252946	-0.961525	-0.107185	0.304099	0.026156	-0.952281	0.918446	-0.273470	0.285782
533	677880433													15.173397	-3.080366	-0.387633	-0.248357	-0.958075	-0.142865	0.287104	0.068053	-0.955479	0.925143	-0.278317	0.258166
534	677897100													7.438918	-0.778792	2.967036	-0.271683	-0.954451	-0.123339	0.241686	0.056387	-0.968715	0.931545	-0.292993	0.215358
535	677913767													1.491634	4.639231	-0.663459	-0.281387	-0.951372	-0.125351	0.200934	0.069317	-0.977149	0.938321	-0.300144	0.171658
536	677930434													4.450627	1.260134	-0.860727	-0.285716	-0.948125	-0.139374	0.170346	0.092872	-0.980998	0.943053	-0.304029	0.134975
537	677947101													4.744435	-2.170263	-0.645392	-0.290929	-0.944130	-0.154850	0.146573	0.115957	-0.982380	0.945450	-0.308500	0.104648
538	677963768													3.188580	-1.709828	-1.120178	-0.298377	-0.939708	-0.167091	0.125382	0.134957	-0.982886	0.946177	-0.314221	0.077555
539	677980435													5.900429	0.461382	-0.728865	-0.303969	-0.936561	-0.174516	0.107004	0.148461	-0.983112	0.946654	-0.317510	0.055088
540	677997102													5.279650	-0.144565	0.272437	-0.308242	-0.935006	-0.175359	0.090190	0.154782	-0.983823	0.947023	-0.319072	0.036618
541	678013769													3.141720	-0.205656	0.827646	-0.311867	-0.934841	-0.169737	0.073652	0.154323	-0.985271	0.947267	-0.319775	0.020725
542	678030436													1.756166	1.273008	0.866035	-0.315733	-0.934656	-0.163496	0.058447	0.152825	-0.986523	0.947046	-0.321034	0.006376
543	678047103													-0.161571	1.835224	0.514110	-0.319288	-0.933605	-0.162595	0.045185	0.156383	-0.986662	0.946580	-0.322376	-0.007746
544	678063770													-0.168642	0.858004	0.039607	-0.322518	-0.931406	-0.168717	0.034454	0.166573	-0.985427	0.945936	-0.323631	-0.021632
545	678080437													1.151440	0.192949	-0.022635	-0.325305	-0.928817	-0.177412	0.024838	0.179159	-0.983506	0.945283	-0.324346	-0.035211
546	678097104													2.623979	-0.201479	-0.008853	-0.327696	-0.926856	-0.183176	0.015274	0.188659	-0.981924	0.944660	-0.324570	-0.047666
547	678113771													2.467631	-0.052214	0.111187	-0.329612	-0.926168	-0.183220	0.005440	0.192198	-0.981341	0.944101	-0.324459	-0.058312
548	678130438													1.465376	0.100332	0.139433	-0.330720	-0.926389	-0.180079	-0.003640	0.192067	-0.981375	0.943722	-0.323905	-0.066893
549	678147105													0.963636	0.318854	-0.022604	-0.331026	-0.926847	-0.177136	-0.011451	0.191651	-0.981396	0.943552	-0.322839	-0.074055
550	678163772													0.649236	0.569949	-0.002735	-0.331185	-0.927193	-0.175012	-0.018769	0.191917	-0.981232	0.943379	-0.321684	-0.080963
551	678180439													0.066627	0.630998	0.084558	-0.331392	-0.927389	-0.173577	-0.025969	0.192869	-0.980881	0.943136	-0.320548	-0.087999
552	678197106													0.012565	0.462120	0.126241	-0.331742	-0.927479	-0.172424	-0.033200	0.194139	-0.980412	0.942786	-0.319519	-0.095196
553	678213773													0.392706	0.480735	-0.007700	-0.332108	-0.927726	-0.170379	-0.041015	0.194664	-0.980012	0.942349	-0.318482	-0.102701
554	678230440													0.444472	0.473397	-0.289445	-0.332587	-0.928257	-0.166505	-0.049609	0.193532	-0.979839	0.941767	-0.317622	-0.110416
555	678247107													0.074123	0.472660	-0.453998	-0.333382	-0.928907	-0.161210	-0.059010	0.191216	-0.979773	0.940943	-0.317125	-0.118562
556	678263774													-0.288006	0.385029	-0.377937	-0.334480	-0.929495	-0.155445	-0.069110	0.188694	-0.979601	0.939865	-0.316914	-0.127352
557	678280441													-0.368242	0.256698	-0.113941	-0.335715	-0.929978	-0.149790	-0.080096	0.186626	-0.979160	0.938552	-0.316721	-0.137141
558	678297108													-0.145314	0.170077	0.020756	-0.336864	-0.930389	-0.144563	-0.091561	0.185179	-0.978430	0.937091	-0.316362	-0.147567
559	678313775													0.027116	0.260079	-0.084505	-0.337882	-0.930689	-0.140193	-0.103063	0.184643	-0.977387	0.935529	-0.315793	-0.158307
560	678330442													0.219476	0.450452	-0.078063	-0.338828	-0.930898	-0.136471	-0.114563	0.184792	-0.976077	0.933847	-0.315088	-0.169259
561	678347109													0.294169	0.478343	0.084414	-0.339742	-0.931043	-0.133168	-0.126250	0.185455	-0.974509	0.932007	-0.314269	-0.180551
562	678363776													0.271004	0.471329	0.107331	-0.340549	-0.931253	-0.129593	-0.138262	0.185933	-0.972786	0.930005	-0.313364	-0.192077
563	678380443													0.012854	0.293815	0.239393	-0.341431	-0.931513	-0.125333	-0.150827	0.185918	-0.970920	0.927726	-0.312599	-0.203975
564	678397110													0.250764	0.050737	0.461951	-0.341754	-0.932250	-0.118804	-0.164351	0.183754	-0.969135	0.925307	-0.311680	-0.216015
565	678413777													0.352576	0.338553	0.507832	-0.341856	-0.933300	-0.109936	-0.178703	0.179410	-0.967407	0.922605	-0.311068	-0.228116
566	678430444													0.176061	0.224664	0.534166	-0.341123	-0.934864	-0.098311	-0.194169	0.172404	-0.965699	0.919746	-0.310334	-0.240333
567	678447111													-0.058719	0.257661	0.343306	-0.339911	-0.936537	-0.085779	-0.210196	0.164557	-0.963711	0.916667	-0.309546	-0.252791
568	678463778													-0.546345	0.133011	0.378224	-0.338092	-0.938261	-0.073213	-0.227028	0.156809	-0.961181	0.913319	-0.308346	-0.266027
569	678480445													-0.632453	-0.128010	0.507544	-0.335410	-0.940112	-0.060741	-0.244578	0.149162	-0.958088	0.909770	-0.306497	-0.279961
570	678497112													-0.388954	-0.196095	0.557718	-0.332177	-0.941950	-0.048866	-0.262285	0.142011	-0.954484	0.906016	-0.304241	-0.294233
571	678513779													-0.076617	0.022295	0.441052	-0.328149	-0.943905	-0.036913	-0.280194	0.134579	-0.950463	0.902114	-0.301551	-0.308639
572	678530446													0.040311	0.131316	0.441111	-0.323657	-0.945844	-0.025019	-0.298184	0.127059	-0.946014	0.897960	-0.298724	-0.323159
573	678547113													-0.157843	0.622564	0.963647	-0.318760	-0.947755	-0.012378	-0.316937	0.118885	-0.940966	0.893277	-0.296019	-0.338274
574	678563780													-1.030631	1.134163	1.536517	-0.313563	-0.949568	0.000248	-0.336138	0.110754	-0.935278	0.888082	-0.293351	-0.353914
575	678580447													-2.188668	1.554020	2.006356	-0.309164	-0.950965	0.009122	-0.355137	0.106549	-0.928722	0.882210	-0.290367	-0.370664
576	678597114													-1.502914	1.794204	1.834568	-0.305057	-0.952221	0.014702	-0.374310	0.105691	-0.921261	0.875690	-0.286540	-0.388668
577	678613781													-0.727162	1.769486	1.919831	-0.299242	-0.953907	0.022696	-0.394991	0.102186	-0.912984	0.868583	-0.282168	-0.407363
578	678630448													-1.163261	2.319453	2.754574	-0.291552	-0.955922	0.034788	-0.417593	0.094477	-0.903709	0.860589	-0.278005	-0.426732
579	678647115													-2.456203	2.710145	2.520903	-0.283007	-0.957897	0.048373	-0.440435	0.084991	-0.893752	0.852012	-0.274243	-0.445945
580	678663782													-2.523112	2.439116	1.448399	-0.274339	-0.959683	0.061205	-0.462562	0.075894	-0.883333	0.843074	-0.270644	-0.464734
581	678680449													-1.988686	1.738738	0.605904	-0.265670	-0.961273	0.073307	-0.483956	0.067214	-0.872507	0.833790	-0.267276	-0.483070
582	678697116													-1.291867	0.500219	0.173071	-0.256233	-0.962806	0.085728	-0.504054	0.057413	-0.861762	0.824787	-0.264024	-0.500017
583	678713783													-0.391506	-0.666920	-0.332588	-0.246553	-0.964174	0.097876	-0.522065	0.047051	-0.851607	0.816492	-0.261064	-0.514962
584	678730450													1.004478	-1.916970	-0.947789	-0.236330	-0.965406	0.110177	-0.537639	0.035471	-0.842429	0.809378	-0.258326	-0.527423
585	678747117													2.029649	-2.572867	-1.077222	-0.224705	-0.966514	0.123929	-0.551755	0.021374	-0.833732	0.803165	-0.255723	-0.538082
586	678763784													1.920553	-1.877217	-0.756545	-0.213126	-0.967229	0.138003	-0.564121	0.006497	-0.825667	0.797712	-0.253821	-0.547019
587	678780451													1.138781	-1.891786	-0.762028	-0.202094	-0.967560	0.151608	-0.574869	-0.008133	-0.818205	0.792896	-0.252509	-0.554577
588	678797118													0.370359	-1.660173	-1.745496	-0.191019	-0.967600	0.165111	-0.584397	-0.023044	-0.811141	0.788664	-0.251434	-0.561061
589	678813785													0.336800	-0.792524	-2.493077	-0.182722	-0.967034	0.177361	-0.592018	-0.035804	-0.805129	0.784938	-0.252116	-0.565960
590	678830452													0.892923	-0.444686	-1.779162	-0.178004	-0.965907	0.187986	-0.597695	-0.045632	-0.800424	0.781713	-0.254837	-0.569195
591	678847119													1.348783	-0.056258	-1.030072	-0.175450	-0.964238	0.198652	-0.601899	-0.054617	-0.796703	0.779061	-0.259350	-0.570791
592	678863786													2.120394	0.586385	-0.483052	-0.172062	-0.961973	0.212136	-0.605243	-0.066672	-0.793244	0.777223	-0.264881	-0.570756
593	678880453													2.739920	0.724921	-0.167047	-0.165845	-0.958911	0.230186	-0.608169	-0.084292	-0.789319	0.776290	-0.270896	-0.569201
594	678897120													2.713749	1.127357	0.001304	-0.156721	-0.954718	0.252886	-0.610466	-0.107639	-0.784694	0.776382	-0.277357	-0.565954
595	678913787													1.430081	1.852887	-0.456919	-0.144678	-0.949079	0.279854	-0.611945	-0.136431	-0.779044	0.777555	-0.283965	-0.561045
596	678930454													0.634265	2.453301	-0.101081	-0.134554	-0.942457	0.306057	-0.612317	-0.163758	-0.773467	0.779078	-0.291477	-0.555048
597	678947121													0.037098	2.196337	0.610600	-0.124276	-0.935590	0.330496	-0.612183	-0.189833	-0.767591	0.780889	-0.297717	-0.549160
598	678963788													-0.150205	2.711921	0.221683	-0.112999	-0.928642	0.353348	-0.612396	-0.214954	-0.760766	0.782433	-0.302355	-0.544408
599	678980455													-0.571135	2.842337	-0.121871	-0.102671	-0.922031	0.373253	-0.612867	-0.236920	-0.753832	0.783487	-0.306151	-0.540758
600	678997122													-0.804402	3.247876	-0.726656	-0.093097	-0.916289	0.389548	-0.613329	-0.255425	-0.747386	0.784322	-0.308500	-0.538207
601	679013789													-0.459827	2.747824	-1.221723	-0.086527	-0.912065	0.400811	-0.613444	-0.268226	-0.742793	0.784984	-0.310147	-0.536292
602	679030456													0.589110	1.505983	-1.789468	-0.082411	-0.909537	0.407371	-0.611902	-0.276461	-0.741043	0.786628	-0.310342	-0.533764
603	679047123													2.010489	0.497460	-1.634210	-0.078615	-0.907467	0.412703	-0.609598	-0.283806	-0.740165	0.788803	-0.309772	-0.530878
604	679063790													2.703871	0.455649	-0.872993	-0.074462	-0.905642	0.417453	-0.608013	-0.290576	-0.738841	0.790428	-0.308832	-0.529005
605	679080457													3.280813	0.352297	-0.428406	-0.069210	-0.904256	0.421345	-0.607477	-0.296821	-0.736796	0.791316	-0.306952	-0.528772
606	679097124													3.003415	-0.390974	-1.140957	-0.063216	-0.903386	0.424144	-0.607165	-0.302481	-0.734749	0.792057	-0.303973	-0.529383
607	679113791													3.234574	-0.202399	-1.854780	-0.058253	-0.903280	0.425078	-0.606735	-0.306101	-0.733604	0.792767	-0.300644	-0.530221
608	679130458													3.451884	-0.348707	-1.044356	-0.054804	-0.904244	0.423485	-0.607122	-0.306537	-0.733102	0.792717	-0.297284	-0.532186
609	679147125													2.725486	-0.065339	-0.421359	-0.051710	-0.906235	0.419600	-0.608950	-0.304400	-0.732476	0.791521	-0.293392	-0.536112
610	679163792													1.530413	0.230003	-0.594377	-0.048796	-0.908999	0.413933	-0.611494	-0.300493	-0.731969	0.789743	-0.288835	-0.541185
611	679180459													0.450679	0.386140	-0.524909	-0.046568	-0.912831	0.405674	-0.613961	-0.294196	-0.732463	0.787962	-0.283177	-0.546742
612	679197126													-0.753150	0.548100	0.384876	-0.045938	-0.917618	0.394801	-0.616456	-0.284948	-0.734021	0.786048	-0.277097	-0.552581
613	679213793													-1.838705	0.412880	0.589948	-0.045243	-0.922907	0.382355	-0.619014	-0.274510	-0.735844	0.784076	-0.269974	-0.558873
614	679230460													-2.202361	0.166876	0.299931	-0.045274	-0.928155	0.369429	-0.621176	-0.263465	-0.738056	0.782363	-0.262896	-0.564619
615	679247127													-2.466672	0.106368	0.158128	-0.045927	-0.932803	0.357448	-0.622599	-0.253097	-0.740482	0.781192	-0.256555	-0.569138
616	679263794													-2.670768	0.009798	0.658436	-0.046570	-0.936331	0.348017	-0.623750	-0.244868	-0.742277	0.780235	-0.251643	-0.572633
617	679280461													-2.872456	0.147033	0.685270	-0.046210	-0.938360	0.342558	-0.624695	-0.240450	-0.742927	0.779500	-0.248325	-0.575077
618	679297128													-3.037730	0.332615	0.727631	-0.045256	-0.938481	0.342352	-0.625481	-0.240594	-0.742218	0.778926	-0.247724	-0.576114
619	679313795													-2.986630	0.729171	0.663545	-0.043233	-0.936994	0.346659	-0.626172	-0.244962	-0.740204	0.778485	-0.249069	-0.576129
620	679330462													-3.106731	0.868761	0.640673	-0.040874	-0.934202	0.354394	-0.626923	-0.252205	-0.737130	0.778008	-0.252307	-0.575364
621	679347129													-3.290843	0.697964	0.712227	-0.038718	-0.930507	0.364222	-0.627604	-0.260988	-0.733483	0.777569	-0.256986	-0.573885
622	679363796													-3.373836	0.459966	0.869840	-0.035978	-0.925759	0.376399	-0.628398	-0.271906	-0.728823	0.777060	-0.262750	-0.571962
623	679380463													-2.886620	0.122727	1.109977	-0.031617	-0.919362	0.392140	-0.628850	-0.286654	-0.722757	0.776884	-0.269448	-0.569077
624	679397130													-2.060181	-0.400992	0.697616	-0.023544	-0.910734	0.412323	-0.628938	-0.307100	-0.714232	0.777099	-0.276141	-0.565564
625	679413797													-1.371979	-1.415282	0.058554	-0.012609	-0.899351	0.437045	-0.629117	-0.332594	-0.702562	0.777209	-0.283811	-0.561604
626	679430464													-1.821607	-2.584979	0.691082	-0.001099	-0.886098	0.463496	-0.629952	-0.359354	-0.688495	0.776633	-0.292737	-0.557804
627	679447131													-3.297057	-1.966892	-0.554938	0.011581	-0.871674	0.489949	-0.633269	-0.385589	-0.671038	0.773845	-0.302498	-0.556470
628	679463798													-3.823848	-0.156951	-2.516893	0.017944	-0.859627	0.510607	-0.638058	-0.403027	-0.656088	0.769779	-0.314024	-0.555724
629	679480465													-4.049242	0.972784	-3.499247	0.015620	-0.852534	0.522439	-0.643121	-0.408646	-0.647614	0.765605	-0.325876	-0.554665
630	679497132													-3.690029	1.377380	-3.171369	0.004225	-0.850235	0.526387	-0.647842	-0.403317	-0.646248	0.761763	-0.338285	-0.552522
631	679513799													-2.852519	1.365196	-2.674168	-0.015242	-0.851833	0.523592	-0.651514	-0.388768	-0.651452	0.758484	-0.351057	-0.549055
632	679530466													-2.748389	1.221327	-2.335304	-0.040885	-0.856237	0.514963	-0.653084	-0.367156	-0.662327	0.756181	-0.363393	-0.544183
633	679547133													-2.816363	1.952281	-2.900647	-0.067596	-0.861650	0.502982	-0.651418	-0.343734	-0.676388	0.755702	-0.373373	-0.538060
634	679563800													-3.092643	2.525122	-3.390946	-0.096597	-0.868849	0.485562	-0.645176	-0.316816	-0.695252	0.757903	-0.380432	-0.529957
635	679580467													-3.194632	2.021589	-3.650535	-0.126888	-0.877825	0.461869	-0.633432	-0.286615	-0.718760	0.763324	-0.383765	-0.519675
636	679597134													-2.900073	1.188948	-3.179593	-0.159185	-0.886757	0.433961	-0.615683	-0.254447	-0.745782	0.771748	-0.385899	-0.505457
637	679613801													-2.945453	0.641678	-2.281418	-0.189861	-0.894405	0.404959	-0.592100	-0.224709	-0.773901	0.783179	-0.386710	-0.486914
638	679630468													-3.068573	0.540311	-1.630240	-0.216271	-0.900847	0.376432	-0.563476	-0.199697	-0.801633	0.797321	-0.385481	-0.464417
639	679647135													-2.834135	0.333915	-0.982325	-0.239101	-0.906263	0.348594	-0.530018	-0.178993	-0.828880	0.813580	-0.382947	-0.437538
640	679663802													-2.384750	0.189134	-0.183069	-0.257332	-0.910670	0.323203	-0.492541	-0.164148	-0.854669	0.831375	-0.379124	-0.406302
641	679680469													-1.799973	0.275209	0.507327	-0.268543	-0.914117	0.303767	-0.452734	-0.158575	-0.877431	0.850245	-0.373153	-0.371268
642	679697136													-0.956371	0.507825	1.082420	-0.273390	-0.916705	0.291393	-0.411556	-0.162331	-0.896811	0.869413	-0.365103	-0.332896
643	679713803													-0.497267	0.653853	1.598293	-0.274211	-0.918066	0.286292	-0.369282	-0.174356	-0.912815	0.887941	-0.356026	-0.291215
644	679730470													-0.611873	0.948311	1.773395	-0.273104	-0.918276	0.286677	-0.325863	-0.192080	-0.925699	0.905112	-0.346230	-0.246774
645	679747137													-1.015792	1.344075	1.799025	-0.272408	-0.918139	0.287776	-0.280775	-0.210217	-0.936469	0.920304	-0.335902	-0.200526
646	679763804													-1.391526	1.760268	1.751136	-0.273620	-0.918695	0.284834	-0.233846	-0.223710	-0.946187	0.932978	-0.325503	-0.153622
647	679780471													-1.615027	1.969868	1.676543	-0.276605	-0.921087	0.274022	-0.185376	-0.228649	-0.955696	0.942935	-0.315147	-0.107502
648	679797138													-1.212326	1.645118	1.688116	-0.280402	-0.925721	0.253801	-0.136015	-0.223422	-0.965185	0.950197	-0.305161	-0.063264
649	679813805													-0.082351	1.012013	1.892303	-0.284019	-0.931969	0.225314	-0.086202	-0.209220	-0.974062	0.954936	-0.296074	-0.020915
650	679830472													0.945405	0.682596	2.163782	-0.285644	-0.938632	0.193333	-0.037103	-0.190755	-0.980936	0.957617	-0.287372	0.019662
651	679847139													2.003970	0.606311	1.990600	-0.284567	-0.944979	0.161355	0.010364	-0.171337	-0.985158	0.958600	-0.278671	0.058550
652	679863806													2.859863	0.220137	1.760634	-0.280861	-0.950721	0.131325	0.055853	-0.152792	-0.986679	0.958122	-0.269785	0.096014
653	679880473													3.532562	-0.003109	1.116744	-0.275538	-0.955539	0.104999	0.098746	-0.136784	-0.985667	0.956205	-0.261221	0.132045
654	679897140													3.870679	-0.288764	0.505957	-0.269850	-0.959339	0.082769	0.138688	-0.123784	-0.982570	0.952862	-0.253667	0.166452
655	679913807													4.255613	-0.492617	-0.083483	-0.265234	-0.961993	0.064964	0.174751	-0.114224	-0.977965	0.948216	-0.248037	0.198405
656	679930474													4.964543	-0.825672	-0.323426	-0.262547	-0.963668	0.049117	0.207155	-0.106009	-0.972548	0.942420	-0.245165	0.227461
657	679947141													5.550840	-1.474198	-0.801199	-0.262304	-0.964226	0.038277	0.234246	-0.102103	-0.966801	0.936123	-0.244629	0.252648
658	679963808													5.977457	-1.968152	-2.422528	-0.264653	-0.963806	0.032206	0.255734	-0.102346	-0.961314	0.929817	-0.246179	0.273564
659	679980475													6.334313	-1.512849	-2.520875	-0.272083	-0.961711	0.032904	0.269788	-0.109060	-0.956724	0.923680	-0.251431	0.289132
660	679997142													6.737200	-1.307713	-2.209448	-0.281405	-0.958767	0.039712	0.276590	-0.120670	-0.953382	0.918863	-0.257303	0.299142
661	680013809													8.004530	-1.651975	-3.649488	-0.294105	-0.954195	0.054896	0.273839	-0.139153	-0.951656	0.915704	-0.264855	0.302221
662	680030476													7.805383	-1.192810	-3.484382	-0.310768	-0.947256	0.078287	0.259849	-0.163898	-0.951639	0.914277	-0.275396	0.297078
663	680047143													0.949308	2.457351	0.867214	-0.323971	-0.940665	0.100955	0.238044	-0.184328	-0.953603	0.915630	-0.284908	0.283637
664	680063810													-10.782108	18.342031	7.858803	-0.330523	-0.931387	0.152557	0.211546	-0.230639	-0.949765	0.919784	-0.281646	0.273262
665	680080477													-4.418909	15.883507	7.476574	-0.320926	-0.937041	0.137697	0.207482	-0.211414	-0.955121	0.924098	-0.277954	0.262267
666	680097144													3.034640	-3.120843	0.442250	-0.304497	-0.951159	0.050769	0.210541	-0.119191	-0.970292	0.928953	-0.284762	0.236552
667	680113811													3.258430	-2.154796	1.004725	-0.300075	-0.953594	-0.024747	0.200735	-0.037763	-0.978918	0.932556	-0.298716	0.202751
668	680130478													4.045856	1.960472	0.639771	-0.292165	-0.952687	-0.083828	0.183331	0.030236	-0.982586	0.938632	-0.302445	0.165824
669	680147145													12.516178	-4.245674	-1.280130	-0.289826	-0.949642	-0.119082	0.166183	0.072599	-0.983419	0.942541	-0.304810	0.136774
670	680163812													12.582955	-4.423725	-3.074729	-0.298526	-0.948394	-0.106919	0.147695	0.064771	-0.986910	0.942904	-0.310410	0.120737
671	680180479													6.672230	-1.853648	-1.219122	-0.310682	-0.948549	-0.061080	0.126444	0.022446	-0.991720	0.942066	-0.315833	0.112965
672	680197146													1.999154	1.283549	-0.001694	-0.320893	-0.947087	-0.007308	0.106131	-0.028289	-0.993950	0.941150	-0.319727	0.109594
673	680213813													-4.164408	3.392694	1.874212	-0.327603	-0.944465	0.025726	0.092175	-0.059047	-0.993991	0.940309	-0.323263	0.106400
674	680230480													-5.530379	2.880685	0.849256	-0.329752	-0.943668	0.027460	0.085050	-0.058663	-0.994648	0.940229	-0.325652	0.099603
675	680247147													-2.679720	1.518122	-0.899669	-0.329935	-0.943987	0.005624	0.081592	-0.034451	-0.996070	0.940471	-0.328179	0.088388
676	680263814													0.981203	0.398862	0.260526	-0.329875	-0.943686	-0.025279	0.078686	-0.000801	-0.996899	0.940740	-0.330841	0.074519
677	680280481													4.024283	-0.675656	0.589832	-0.330052	-0.942749	-0.047857	0.075125	0.024304	-0.996878	0.940969	-0.332617	0.062802
678	680297148													4.909953	-1.199551	-0.346095	-0.331503	-0.941988	-0.052584	0.070635	0.030799	-0.997027	0.940806	-0.334232	0.056327
679	680313815													3.232696	-0.689303	-0.186267	-0.334053	-0.941660	-0.041056	0.063407	0.021009	-0.997767	0.940419	-0.335910	0.052690
680	680330482													0.374850	0.217849	0.242582	-0.336384	-0.941424	-0.023810	0.055217	0.005523	-0.998459	0.940105	-0.337181	0.050125
681	680347149													-1.738353	0.865985	0.637839	-0.338165	-0.941019	-0.011308	0.048230	-0.005330	-0.998822	0.939850	-0.338312	0.047187
682	680363816													-2.067499	1.254941	0.512842	-0.338931	-0.940776	-0.008104	0.042629	-0.006752	-0.999068	0.939845	-0.338960	0.042393
683	680380483													-1.051913	0.992795	0.213446	-0.338919	-0.940732	-0.012535	0.037726	-0.000276	-0.999288	0.940059	-0.339151	0.035584
684	680397150													-0.175912	0.525597	0.116154	-0.338826	-0.940650	-0.019323	0.032441	0.008845	-0.999434	0.940289	-0.339262	0.027519
685	680413817													0.511124	0.071212	-0.053922	-0.338639	-0.940624	-0.023452	0.026175	0.015498	-0.999537	0.940552	-0.339096	0.019373
686	680430484													1.075187	-0.099692	-0.139857	-0.338665	-0.940619	-0.023276	0.018970	0.017907	-0.999660	0.940716	-0.338991	0.011779
687	680447151													0.862356	0.293696	-0.046157	-0.338769	-0.940671	-0.019354	0.010868	0.016657	-0.999802	0.940807	-0.338912	0.004580
688	680463818													0.322037	0.752598	0.205137	-0.338756	-0.940764	-0.014370	0.002768	0.014276	-0.999894	0.940870	-0.338760	-0.002232
689	680480485													0.193714	0.967129	0.090305	-0.338680	-0.940843	-0.010475	-0.004868	0.012886	-0.999905	0.940889	-0.338597	-0.008945
690	680497152													-0.150512	0.935718	-0.128031	-0.338630	-0.940879	-0.008710	-0.011889	0.013535	-0.999838	0.940844	-0.338472	-0.015769
691	680513819													-0.558407	0.809799	-0.024875	-0.338786	-0.940811	-0.009943	-0.018458	0.017212	-0.999681	0.940682	-0.338495	-0.023197
692	680530486													-0.291981	0.463353	0.070388	-0.338760	-0.940778	-0.013387	-0.024653	0.023099	-0.999429	0.940550	-0.338236	-0.031019
693	680547153													0.691846	0.342713	-0.008842	-0.338662	-0.940765	-0.016383	-0.030935	0.028535	-0.999114	0.940399	-0.337855	-0.038767
694	680563820													0.774858	0.329593	0.054829	-0.338502	-0.940801	-0.017600	-0.037636	0.032226	-0.998772	0.940213	-0.337424	-0.046317
695	680580487													0.614262	0.337364	0.015468	-0.338425	-0.940836	-0.017204	-0.044552	0.034283	-0.998419	0.939938	-0.337124	-0.053518
696	680597154													0.096623	0.579158	0.003938	-0.338370	-0.940877	-0.016028	-0.051756	0.035615	-0.998024	0.939589	-0.336872	-0.060747
697	680613821													-0.239269	0.438456	-0.008282	-0.338158	-0.940960	-0.015606	-0.058837	0.037689	-0.997556	0.939248	-0.336414	-0.068108
698	680630488													0.177910	0.620665	0.077919	-0.338057	-0.940984	-0.016342	-0.065799	0.040953	-0.996992	0.938822	-0.335965	-0.075761
699	680647155													0.074730	0.689184	-0.018822	-0.337847	-0.941040	-0.017410	-0.072835	0.044582	-0.996347	0.938379	-0.335345	-0.083603
700	680663822													0.136221	0.390104	0.006397	-0.337637	-0.941096	-0.018417	-0.079960	0.048172	-0.995633	0.937874	-0.334690	-0.091514
701	680680489													0.316083	0.147752	0.016460	-0.337297	-0.941209	-0.018880	-0.087275	0.051233	-0.994866	0.937344	-0.333917	-0.099424
702	680697156													0.491629	0.125711	-0.041249	-0.336727	-0.941430	-0.018033	-0.094883	0.052979	-0.994078	0.936810	-0.333021	-0.107165
703	680713823													0.571803	0.193413	0.356430	-0.335919	-0.941761	-0.015653	-0.103113	0.053289	-0.993241	0.936230	-0.332034	-0.115008
704	680730490													0.554534	0.372961	0.342110	-0.334836	-0.942205	-0.011600	-0.111695	0.051911	-0.992386	0.935633	-0.330991	-0.122622
705	680747157													0.173555	0.478880	0.322054	-0.333426	-0.942755	-0.006263	-0.120633	0.049251	-0.991475	0.935026	-0.329828	-0.130149
706	680763824													-0.100136	0.398341	0.257990	-0.331928	-0.943304	-0.000523	-0.129893	0.046256	-0.990448	0.934319	-0.328690	-0.137883
707	680780491													-0.109007	0.500868	0.033457	-0.330223	-0.943885	0.005837	-0.139549	0.042704	-0.989294	0.933530	-0.327502	-0.145820
708	680797158													-0.368183	0.454458	0.044871	-0.328321	-0.944482	0.012614	-0.150002	0.038949	-0.987918	0.932580	-0.326247	-0.154462
709	680813825													-0.603511	0.250548	0.088998	-0.326223	-0.945095	0.019345	-0.161334	0.035501	-0.986261	0.931423	-0.324862	-0.164057
710	680830492													-0.660969	0.361445	0.096343	-0.323929	-0.945720	0.026164	-0.173427	0.032171	-0.984321	0.930050	-0.323388	-0.174434
711	680847159													-0.830066	0.322304	0.064519	-0.321608	-0.946332	0.032015	-0.186093	0.030018	-0.982073	0.928406	-0.321800	-0.185760
712	680863826													-0.410309	0.156162	0.244300	-0.319087	-0.946995	0.037196	-0.199332	0.028691	-0.979512	0.926526	-0.319964	-0.197922
713	680880493													0.107134	0.329851	0.234613	-0.316091	-0.947779	0.042442	-0.212790	0.027229	-0.976719	0.924558	-0.317763	-0.210284
714	680897160													0.172929	0.177899	0.563568	-0.312507	-0.948701	0.048019	-0.226696	0.025394	-0.973634	0.922468	-0.315154	-0.223003
715	680913827													-0.335879	-0.030824	0.974272	-0.308512	-0.949720	0.053410	-0.240680	0.023615	-0.970317	0.920268	-0.312209	-0.235864
716	680930494													-0.900568	-0.215423	1.358709	-0.303905	-0.950969	0.057452	-0.254408	0.022892	-0.966826	0.918106	-0.308439	-0.248891
717	680947161													-0.179785	0.133060	0.615362	-0.298971	-0.952320	0.060852	-0.267216	0.022331	-0.963378	0.916085	-0.304283	-0.261152
718	680963828													0.387992	0.570921	0.864498	-0.293714	-0.953639	0.065607	-0.280317	0.020312	-0.959693	0.913868	-0.300266	-0.273287
719	680980495													0.407882	1.391297	0.853639	-0.288209	-0.954796	0.072807	-0.293713	0.015778	-0.955763	0.911410	-0.296844	-0.284983
720	680997162													0.229825	1.915334	0.904947	-0.282770	-0.955661	0.082176	-0.307591	0.009197	-0.951474	0.908531	-0.294325	-0.296553
721	681013829													-0.647251	1.753630	1.063087	-0.277528	-0.956262	0.092422	-0.322135	0.001994	-0.946692	0.905101	-0.292506	-0.308598
722	681030496													-0.908492	2.326335	1.221671	-0.271556	-0.956894	0.103008	-0.337354	-0.005599	-0.941361	0.901360	-0.290382	-0.321291
723	681047163													-1.066152	2.293694	0.968276	-0.264707	-0.957662	0.113199	-0.353381	-0.012888	-0.935391	0.897247	-0.287607	-0.335008
724	681063830													-1.201817	1.933056	0.428765	-0.256684	-0.958552	0.123656	-0.370651	-0.020531	-0.928545	0.892598	-0.284175	-0.350018
725	681080497													-1.196726	1.569126	0.402061	-0.249115	-0.959289	0.133067	-0.388281	-0.026944	-0.921147	0.887232	-0.281139	-0.365761
726	681097164													-1.363440	1.131638	0.106496	-0.241266	-0.959924	0.142607	-0.406173	-0.033576	-0.913179	0.881371	-0.278242	-0.381794
727	681113831													-1.423337	0.864087	-0.050808	-0.233301	-0.960252	0.153256	-0.423984	-0.041383	-0.904724	0.875105	-0.276051	-0.397477
728	681130498													-1.321106	0.646885	0.135971	-0.226135	-0.960098	0.164545	-0.441377	-0.049592	-0.895950	0.868360	-0.275232	-0.412551
729	681147165													-1.134438	0.500807	0.353289	-0.219678	-0.959393	0.176934	-0.458229	-0.058641	-0.886897	0.861259	-0.275908	-0.426740
730	681163832													-1.064594	0.270324	0.230084	-0.213160	-0.958151	0.191073	-0.474462	-0.069442	-0.877532	0.854078	-0.277711	-0.439805
731	681180499													-0.565704	-0.202127	0.092587	-0.207151	-0.956423	0.205773	-0.489597	-0.080751	-0.868202	0.846985	-0.280595	-0.451534
732	681197166													0.415390	-1.021304	-0.037341	-0.201900	-0.954154	0.220966	-0.503331	-0.092456	-0.859133	0.840175	-0.284678	-0.461589
733	681213833													1.428428	-1.650003	-0.157795	-0.197492	-0.951196	0.237112	-0.515406	-0.104997	-0.850489	0.833878	-0.290174	-0.469516
734	681230500													1.886921	-1.826534	-0.367571	-0.192808	-0.947517	0.255022	-0.525745	-0.119688	-0.842180	0.828503	-0.296455	-0.475076
735	681247167													1.916112	-1.930552	-0.584046	-0.187330	-0.943151	0.274542	-0.534038	-0.136792	-0.834321	0.824446	-0.302909	-0.478054
736	681263834													1.473142	-2.053142	-0.883196	-0.181122	-0.938039	0.295427	-0.540190	-0.156133	-0.826933	0.821821	-0.309362	-0.478440
737	681280501													0.864004	-2.088830	-1.512657	-0.174252	-0.932185	0.317282	-0.544200	-0.177369	-0.819992	0.820660	-0.315550	-0.476389
738	681297168													0.853485	-1.843649	-2.043017	-0.167571	-0.925539	0.339554	-0.545929	-0.199678	-0.813689	0.820903	-0.321723	-0.471819
739	681313835													1.208800	-1.768430	-2.102883	-0.162501	-0.918229	0.361178	-0.545569	-0.221386	-0.808296	0.822160	-0.328396	-0.464982
740	681330502													1.730636	-1.693304	-1.987363	-0.158645	-0.910160	0.382677	-0.543215	-0.243190	-0.803602	0.824469	-0.335363	-0.455831
741	681347169													1.986159	-1.809113	-1.787110	-0.154955	-0.901166	0.404833	-0.538594	-0.266469	-0.799319	0.828194	-0.341899	-0.444071
742	681363836													1.999339	-1.672079	-1.712308	-0.150002	-0.890934	0.428645	-0.531783	-0.292792	-0.794657	0.833490	-0.347146	-0.429864
743	681380503													1.802236	-1.404483	-1.428854	-0.144514	-0.879033	0.454332	-0.523039	-0.321904	-0.789182	0.839968	-0.351681	-0.413248
744	681397170													1.870228	-0.755756	-1.268170	-0.138671	-0.865550	0.481242	-0.512623	-0.353037	-0.782676	0.847342	-0.355231	-0.394745
745	681413837													1.676479	-0.213206	-0.765841	-0.134562	-0.851399	0.506964	-0.501325	-0.382815	-0.775968	0.854732	-0.358569	-0.375315
746	681430504													1.248884	0.359981	-0.309883	-0.130216	-0.836689	0.531973	-0.489527	-0.412330	-0.768341	0.862210	-0.360466	-0.355890
747	681447171													1.473247	1.242790	-0.296168	-0.126045	-0.821943	0.555448	-0.477006	-0.440720	-0.760415	0.869815	-0.360798	-0.336521
748	681463838													1.518006	1.562146	-0.070054	-0.124076	-0.807814	0.576231	-0.463922	-0.466114	-0.753336	0.877144	-0.360797	-0.316929
749	681480505													1.226896	1.167330	0.383584	-0.122035	-0.794279	0.595171	-0.450819	-0.489867	-0.746185	0.884234	-0.359375	-0.298295
750	681497172													2.018040	1.053907	0.454477	-0.119275	-0.779394	0.615076	-0.438317	-0.514527	-0.736981	0.890872	-0.357502	-0.280251
751	681513839													1.657141	1.087654	-0.005591	-0.117567	-0.765153	0.633023	-0.425408	-0.537189	-0.728324	0.897333	-0.354920	-0.262347
752	681530506													1.216270	1.872632	-1.018133	-0.116510	-0.752406	0.648314	-0.412954	-0.556962	-0.720599	0.903269	-0.351681	-0.245817
753	681547173													1.181667	2.297249	-0.634056	-0.116808	-0.742390	0.659706	-0.401596	-0.572218	-0.715043	0.908337	-0.348459	-0.231301
754	681563840													1.043563	2.082703	0.429718	-0.117408	-0.733991	0.668934	-0.391943	-0.584663	-0.710317	0.912467	-0.345581	-0.219038
755	681580507													0.909894	1.129686	0.769069	-0.117842	-0.726630	0.676847	-0.383951	-0.595248	-0.705877	0.915803	-0.343058	-0.208845
756	681597174													0.162572	0.938616	0.441235	-0.117625	-0.719729	0.684219	-0.377822	-0.604751	-0.701089	0.918376	-0.340979	-0.200795
757	681613841													-0.385491	1.100005	0.163202	-0.118402	-0.715255	0.688761	-0.373171	-0.610740	-0.698384	0.920176	-0.339716	-0.194600
758	681630508													-0.660952	0.980379	0.342216	-0.120385	-0.712570	0.691196	-0.369916	-0.613918	-0.697329	0.921233	-0.339632	-0.189684
759	681647175													-0.313936	0.476815	0.430839	-0.121867	-0.709257	0.694337	-0.368167	-0.617343	-0.695227	0.921738	-0.340357	-0.185891
760	681663842													0.222240	-0.374551	0.751088	-0.121796	-0.702546	0.701139	-0.367790	-0.624167	-0.689308	0.921898	-0.341826	-0.182368
761	681680509													0.478317	-0.714322	1.210646	-0.119174	-0.689997	0.713934	-0.368429	-0.636988	-0.677131	0.921986	-0.343730	-0.178302
762	681697176													0.362711	-0.412133	1.172303	-0.113263	-0.670787	0.732951	-0.370177	-0.656095	-0.657653	0.922030	-0.345810	-0.173998
763	681713843													-0.171296	0.292739	0.648889	-0.105417	-0.646781	0.755355	-0.372939	-0.678434	-0.632964	0.921848	-0.348426	-0.169692
764	681730510													-0.755291	1.177567	0.215576	-0.097465	-0.621072	0.777670	-0.376582	-0.700279	-0.606462	0.921242	-0.351965	-0.165632
765	681747177													-1.135511	1.757890	-0.179977	-0.090333	-0.596450	0.797551	-0.380755	-0.719304	-0.581058	0.920253	-0.356160	-0.162124
766	681763844													-0.977285	1.942430	-0.393571	-0.084400	-0.573507	0.814841	-0.385555	-0.735265	-0.557434	0.918817	-0.361214	-0.159063
767	681780511													-0.851294	1.723793	-0.323005	-0.079696	-0.551917	0.830082	-0.390897	-0.748728	-0.535355	0.916978	-0.367142	-0.156072
768	681797178													-0.581326	1.408194	-0.261771	-0.075620	-0.529724	0.844793	-0.396285	-0.761472	-0.512950	0.915008	-0.373568	-0.152339
769	681813845													-0.704351	1.229459	0.029410	-0.071369	-0.505781	0.859705	-0.401378	-0.774476	-0.488960	0.913128	-0.379963	-0.147736
770	681830512													-0.699745	1.421377	0.067542	-0.066045	-0.479384	0.875117	-0.406025	-0.788228	-0.462429	0.911472	-0.385860	-0.142583
771	681847179													-0.642764	1.779491	-0.235458	-0.059156	-0.449863	0.891136	-0.409855	-0.803042	-0.432599	0.910230	-0.390827	-0.136874
772	681863846													-0.512853	2.217050	-0.450709	-0.050883	-0.420562	0.905836	-0.412569	-0.817148	-0.402561	0.909504	-0.394204	-0.131932
773	681880513													-0.525785	2.553331	-0.739140	-0.041860	-0.389630	0.920020	-0.413682	-0.831430	-0.370934	0.909459	-0.396123	-0.126379
774	681897180													-0.515894	2.755496	-0.989185	-0.032771	-0.357954	0.933164	-0.412980	-0.845383	-0.338784	0.910150	-0.396481	-0.120124
775	681913847													-0.690355	2.714292	-1.139240	-0.024706	-0.329309	0.943899	-0.410251	-0.857680	-0.309967	0.911638	-0.394894	-0.113910
776	681930514													-0.591695	2.455502	-1.185409	-0.017659	-0.300791	0.953526	-0.405491	-0.869572	-0.281817	0.913928	-0.391623	-0.106613
777	681947181													-0.712442	2.325596	-0.885672	-0.010728	-0.271009	0.962517	-0.398742	-0.881570	-0.252662	0.917000	-0.386507	-0.098605
778	681963848													-0.777843	2.245857	-0.684527	-0.003649	-0.241651	0.970356	-0.390154	-0.893116	-0.223883	0.920742	-0.379405	-0.091023
779	681980515													-0.969281	1.987914	-0.416400	0.003374	-0.211608	0.977349	-0.379642	-0.904453	-0.194514	0.925127	-0.370387	-0.083387
780	681997182													-1.413828	1.669814	-0.423086	0.011155	-0.180453	0.983520	-0.367164	-0.915615	-0.163829	0.930089	-0.359286	-0.076470
781	682013849													-1.604054	1.355336	-0.961998	0.020215	-0.145924	0.989089	-0.352712	-0.926725	-0.129515	0.935513	-0.346246	-0.070203
782	682030516													-2.121970	1.206751	-1.182487	0.028294	-0.108026	0.993745	-0.336336	-0.937208	-0.092304	0.941317	-0.331621	-0.062851
783	682047183													-2.682599	1.151193	-1.213722	0.034910	-0.066448	0.997179	-0.318229	-0.946590	-0.051936	0.947371	-0.315518	-0.054192
784	682063850													-3.109721	1.347216	-0.910419	0.039989	-0.021842	0.998961	-0.298591	-0.954340	-0.008914	0.953543	-0.297924	-0.044685
785	682080517													-3.108140	1.565839	-0.837068	0.044334	0.026060	0.998677	-0.277987	-0.959857	0.037387	0.959561	-0.279277	-0.035310
786	682097184													-2.969658	1.691995	-0.875237	0.047780	0.076157	0.995950	-0.257241	-0.962518	0.085941	0.965165	-0.260305	-0.026399
787	682113851													-2.775720	2.019138	-1.071687	0.050226	0.126490	0.990696	-0.237401	-0.962005	0.134862	0.970112	-0.241966	-0.018289
788	682130518													-2.407124	2.220428	-1.185355	0.051097	0.174162	0.983390	-0.219387	-0.958667	0.181183	0.974299	-0.225001	-0.010776
789	682147185													-2.441291	2.322637	-1.468347	0.049465	0.216638	0.974998	-0.204076	-0.953406	0.222194	0.977705	-0.209964	-0.002949
790	682163852													-2.585339	1.950849	-1.755372	0.045028	0.254136	0.966120	-0.192121	-0.946845	0.258020	0.980338	-0.197231	0.006190
791	682180519													-3.804922	1.098854	-1.683222	0.035787	0.284662	0.957960	-0.185063	-0.940107	0.286270	0.982075	-0.187528	0.019037
792	682197186													-2.857564	2.223642	-0.220009	0.025073	0.311079	0.950053	-0.181498	-0.933141	0.310332	0.983072	-0.180214	0.033064
793	682213853													1.491113	2.359965	0.563797	0.018298	0.338649	0.940735	-0.180283	-0.924353	0.336258	0.983445	-0.175751	0.044139
794	682230520													4.119969	1.104488	1.134008	0.012090	0.355697	0.934523	-0.178784	-0.918763	0.352011	0.983814	-0.171333	0.052485
795	682247187													5.490297	-0.558559	2.714866	0.011823	0.376139	0.926488	-0.178303	-0.910910	0.372090	0.983905	-0.169595	0.056297
796	682263854													4.339507	-1.822214	2.318613	0.011527	0.386617	0.922169	-0.183758	-0.905705	0.382011	0.982904	-0.173859	0.060604
797	682280521													4.693760	1.798110	1.024872	0.005707	0.381443	0.924375	-0.194692	-0.906277	0.375177	0.980848	-0.182109	0.069092
798	682297188													4.090071	6.552959	-1.269834	-0.008122	0.351683	0.936084	-0.206898	-0.916449	0.342511	0.978329	-0.190892	0.080206
799	682313855													-2.087072	7.069389	-1.970406	-0.029894	0.300993	0.953158	-0.217544	-0.932684	0.287705	0.975593	-0.198753	0.093361
800	682330522													-4.976932	2.045467	0.234348	-0.051173	0.258543	0.964643	-0.225932	-0.943864	0.240988	0.972798	-0.205611	0.106714
801	682347189													-4.874062	-5.045650	2.032606	-0.066626	0.235420	0.969607	-0.231281	-0.948944	0.214510	0.970603	-0.209960	0.117672
802	682363856													-3.138876	-4.847565	0.926749	-0.074764	0.239509	0.968011	-0.233232	-0.948004	0.216545	0.969543	-0.209582	0.126738
803	682380523													-1.704880	-0.451272	-0.153898	-0.080482	0.257735	0.962858	-0.233770	-0.943929	0.233128	0.968955	-0.206325	0.136220
804	682397190													-0.316310	3.122066	-0.505479	-0.086392	0.275488	0.957415	-0.234153	-0.939702	0.249263	0.968354	-0.202647	0.145689
805	682413857													0.449384	3.976752	-0.751141	-0.094783	0.283378	0.954313	-0.234790	-0.937948	0.255199	0.967414	-0.199875	0.155436
806	682430524													0.616873	3.923278	-0.674759	-0.105877	0.278960	0.954448	-0.236266	-0.939413	0.248357	0.965903	-0.199208	0.165371
807	682447191													-0.180104	3.464099	-0.509765	-0.119017	0.264814	0.956927	-0.237752	-0.943339	0.231484	0.964007	-0.199961	0.175233
808	682463858													-1.146885	2.228700	-0.110570	-0.133564	0.246012	0.960020	-0.238919	-0.948121	0.209723	0.961810	-0.201355	0.185412
809	682480525													-1.458261	0.942824	0.589774	-0.147051	0.228827	0.962296	-0.240612	-0.951925	0.189592	0.959417	-0.203660	0.195040
810	682497192													-1.488588	-0.509455	1.005614	-0.157524	0.220004	0.962696	-0.243338	-0.953455	0.178075	0.957065	-0.206210	0.203728
811	682513859													-1.190901	-0.883468	0.875671	-0.165948	0.220131	0.961251	-0.246688	-0.953041	0.175663	0.954781	-0.207978	0.212459
812	682530526													-1.420589	-0.339526	0.608694	-0.172800	0.227765	0.958260	-0.250116	-0.951152	0.180973	0.952671	-0.208404	0.221327
813	682547193													-1.266676	0.314807	0.535521	-0.178626	0.238541	0.954563	-0.252882	-0.948706	0.189756	0.950865	-0.207496	0.229786
814	682563860													-1.259935	0.794553	0.263585	-0.183793	0.248089	0.951142	-0.254259	-0.946693	0.197797	0.949512	-0.205483	0.237075
815	682580527													-1.240052	0.760438	0.186945	-0.188592	0.255073	0.948352	-0.254053	-0.945479	0.203779	0.948625	-0.202501	0.243112
816	682597194													-1.066563	0.752146	0.068277	-0.193208	0.260072	0.946062	-0.252698	-0.944892	0.208144	0.948058	-0.198853	0.248280
817	682613861													-0.840492	0.635885	0.181676	-0.197801	0.264267	0.943948	-0.250529	-0.944621	0.211958	0.947687	-0.194561	0.253054
818	682630528													-0.911953	0.743761	0.346298	-0.202007	0.268848	0.941761	-0.247993	-0.944289	0.216376	0.947466	-0.189840	0.257426
819	682647195													-1.096110	1.169982	0.033277	-0.205760	0.274277	0.939380	-0.245193	-0.943750	0.221847	0.947388	-0.184682	0.261437
820	682663862													-1.023084	1.370503	-0.113532	-0.209095	0.280535	0.936792	-0.242481	-0.942924	0.228248	0.947355	-0.179429	0.265186
821	682680529													-0.870449	1.503815	-0.097543	-0.211965	0.287373	0.934070	-0.240141	-0.941799	0.235257	0.947314	-0.174443	0.268639
822	682697196													-0.704596	1.758113	-0.131975	-0.214665	0.294055	0.931370	-0.238152	-0.940577	0.242071	0.947208	-0.169843	0.271939
823	682713863													-0.528767	1.702362	-0.253922	-0.217618	0.300185	0.928726	-0.236276	-0.939431	0.248281	0.947004	-0.165406	0.275364
824	682730530													-0.468493	1.444448	-0.097603	-0.220867	0.305866	0.926101	-0.234847	-0.938291	0.253883	0.946607	-0.161418	0.279069
825	682747197													-0.499142	1.356130	-0.005516	-0.224030	0.312065	0.923269	-0.234013	-0.936858	0.259875	0.946070	-0.157837	0.282912
826	682763864													-0.645851	1.471522	-0.001942	-0.227198	0.318795	0.920191	-0.233625	-0.935150	0.266295	0.945410	-0.154478	0.286943
827	682780531													-0.673492	1.728864	-0.013504	-0.230131	0.326115	0.916891	-0.233812	-0.933110	0.273199	0.944654	-0.151509	0.290987
828	682797198													-0.666389	1.952489	-0.009064	-0.233019	0.333324	0.913563	-0.234546	-0.930954	0.279845	0.943764	-0.149064	0.295110
829	682813865													-0.664818	2.048124	-0.033193	-0.235695	0.340831	0.910100	-0.236089	-0.928510	0.286584	0.942714	-0.147319	0.299312
830	682830532													-0.611191	1.885704	-0.038021	-0.238247	0.348559	0.906502	-0.238463	-0.925801	0.293306	0.941474	-0.146287	0.303688
831	682847199													-0.495953	1.976211	0.008817	-0.240664	0.356477	0.902776	-0.241728	-0.922820	0.299952	0.940026	-0.146039	0.308260
832	682863866													-0.544316	1.976305	-0.007496	-0.242842	0.364675	0.898910	-0.245788	-0.919542	0.306645	0.938412	-0.146475	0.312936
833	682880533													-0.564843	1.922272	-0.008436	-0.244809	0.373695	0.894662	-0.250818	-0.915739	0.313867	0.936568	-0.147561	0.317910
834	682897200													-0.456076	2.126450	-0.174181	-0.246492	0.383659	0.889971	-0.256964	-0.911310	0.321688	0.934458	-0.149397	0.323217
835	682913867													-0.415278	2.235875	-0.108358	-0.247989	0.394165	0.884950	-0.264185	-0.906377	0.329676	0.932045	-0.152035	0.328904
836	682930534													-0.340021	2.096647	0.013588	-0.249480	0.405038	0.879604	-0.272509	-0.900983	0.337592	0.929246	-0.155477	0.335154
837	682947201													-0.237951	1.994225	0.065564	-0.251053	0.415593	0.874217	-0.281488	-0.895456	0.344853	0.926141	-0.159505	0.341791
838	682963868													-0.187581	1.774273	0.070121	-0.252867	0.425774	0.868778	-0.290806	-0.889885	0.351477	0.922762	-0.163769	0.348840
839	682980535													-0.465077	1.617724	0.076036	-0.254750	0.435807	0.863235	-0.300653	-0.884140	0.357636	0.919081	-0.168427	0.356262
840	682997202													-0.434231	1.411536	0.094195	-0.256574	0.446347	0.857289	-0.311084	-0.877919	0.363985	0.915094	-0.173299	0.364103
841	683013869													-0.487413	1.508624	0.068448	-0.258307	0.457648	0.850785	-0.321837	-0.871131	0.370879	0.910878	-0.178013	0.372307
842	683030536													-0.441755	1.823581	0.116512	-0.259699	0.469566	0.843839	-0.333089	-0.863751	0.378135	0.906426	-0.182873	0.380722
843	683047203													-0.317418	1.889429	0.111543	-0.261057	0.481290	0.836785	-0.344774	-0.856157	0.384871	0.901654	-0.188029	0.389442
844	683063870													-0.722380	1.737893	0.341502	-0.261817	0.493404	0.829460	-0.356901	-0.848013	0.391786	0.896702	-0.193459	0.398120
845	683080537													-0.729579	1.236554	0.576327	-0.261990	0.505318	0.822201	-0.369106	-0.839652	0.398429	0.891696	-0.199095	0.406497
