// Start Time: Unknown
// Update Rate: 100.0Hz
//Filter Profile: human (46.1)
// Option Flags: AHS Disabled ICC Disabled
// Firmware Version: 4.0.2
PacketCounter	SampleTimeFine	Year	Month	Day	Second	UTC_Nano	UTC_Year	UTC_Month	UTC_Day	UTC_Hour	UTC_Minute	UTC_Second	UTC_Valid	Acc_X	Acc_Y	Acc_Z	Mat[1][1]	Mat[1][2]	Mat[1][3]	Mat[2][1]	Mat[2][2]	Mat[2][3]	Mat[3][1]	Mat[3][2]	Mat[3][3]
1	674690937													0.009404	-0.047418	0.068447	0.171437	0.553290	0.815156	-0.061418	0.831798	-0.551669	-0.983279	0.044511	0.176583
2	674707604													0.004710	-0.000460	0.018654	0.171956	0.554136	0.814472	-0.061129	0.831196	-0.552609	-0.983206	0.045236	0.176803
3	674724271													0.016350	-0.021659	0.008914	0.172127	0.555290	0.813650	-0.061369	0.830418	-0.553751	-0.983161	0.045383	0.177015
4	674740938													0.039180	-0.015162	0.052147	0.172272	0.556921	0.812503	-0.061943	0.829327	-0.555319	-0.983100	0.045337	0.177368
5	674757605													-0.005587	-0.036699	0.030967	0.172217	0.558976	0.811102	-0.062965	0.827967	-0.557230	-0.983045	0.044894	0.177787
6	674774272													-0.016052	-0.065768	-0.001881	0.172017	0.560864	0.809840	-0.063929	0.826717	-0.558974	-0.983017	0.044381	0.178065
7	674790939													0.029728	-0.048711	-0.013154	0.171958	0.563364	0.808116	-0.064572	0.825017	-0.561407	-0.982986	0.044357	0.178246
8	674807606													0.051361	0.014627	-0.000681	0.172025	0.565794	0.806402	-0.065063	0.823344	-0.563801	-0.982942	0.044521	0.178448
9	674824273													0.069318	0.107627	0.007029	0.171943	0.567720	0.805065	-0.065599	0.822021	-0.565666	-0.982920	0.044451	0.178582
10	674840940													0.118061	0.146869	0.028819	0.171625	0.570577	0.803110	-0.066297	0.820047	-0.568443	-0.982929	0.044315	0.178568
11	674857607													0.112965	0.152966	-0.004558	0.171106	0.573254	0.801313	-0.067191	0.818203	-0.570989	-0.982959	0.043859	0.178517
12	674874274													0.069860	0.129321	-0.003811	0.170553	0.576510	0.799092	-0.068168	0.815934	-0.574112	-0.982988	0.043444	0.178460
13	674890941													0.066592	0.130287	0.030293	0.170142	0.579726	0.796850	-0.069142	0.813670	-0.577200	-0.982991	0.043110	0.178523
14	674907608													0.093420	0.125090	0.071258	0.169794	0.582916	0.794593	-0.070055	0.811401	-0.580276	-0.982986	0.042863	0.178608
15	674924275													0.120144	0.123021	0.098635	0.169575	0.585947	0.792408	-0.070890	0.809222	-0.583210	-0.982964	0.042725	0.178762
16	674940942													0.159033	0.128275	0.094284	0.169413	0.588856	0.790283	-0.071653	0.807111	-0.586035	-0.982937	0.042656	0.178928
17	674957609													0.154655	0.136602	0.050350	0.169389	0.591738	0.788133	-0.072416	0.805000	-0.588838	-0.982885	0.042669	0.179210
18	674974276													0.135889	0.111090	0.005177	0.169480	0.594359	0.786138	-0.073218	0.803067	-0.591373	-0.982810	0.042666	0.179621
19	674990943													0.136761	0.086030	-0.000294	0.169695	0.596942	0.784133	-0.074058	0.801147	-0.593868	-0.982710	0.042705	0.180159
20	675007610													0.128721	0.082322	0.006328	0.169948	0.599485	0.782135	-0.074880	0.799242	-0.596327	-0.982604	0.042779	0.180719
21	675024277													0.139522	0.060693	0.034307	0.170201	0.601789	0.780308	-0.075639	0.797504	-0.598553	-0.982502	0.042853	0.181255
22	675040944													0.159443	0.074720	0.022945	0.170514	0.604053	0.778489	-0.076334	0.795783	-0.600752	-0.982394	0.043011	0.181802
23	675057611													0.165508	0.073891	-0.001038	0.170832	0.605829	0.777038	-0.077022	0.794428	-0.602454	-0.982285	0.043069	0.182376
24	675074278													0.148879	0.065288	0.038285	0.171170	0.607600	0.775579	-0.077741	0.793072	-0.604147	-0.982170	0.043117	0.182986
25	675090945													0.130848	0.055466	0.038197	0.171622	0.609093	0.774307	-0.078480	0.791923	-0.605556	-0.982032	0.043158	0.183713
26	675107612													0.092055	0.077349	0.026188	0.172082	0.610391	0.773182	-0.079219	0.790924	-0.606765	-0.981892	0.043162	0.184458
27	675124279													0.108754	0.016574	0.045023	0.172467	0.611671	0.772084	-0.080019	0.789939	-0.607942	-0.981760	0.043068	0.185184
28	675140946													0.114700	-0.034280	0.028372	0.172885	0.612880	0.771031	-0.080880	0.789009	-0.609035	-0.981616	0.042932	0.185977
29	675157613													0.083575	-0.073265	-0.015354	0.173222	0.614056	0.770019	-0.081793	0.788107	-0.610080	-0.981481	0.042697	0.186743
30	675174280													0.041204	-0.087056	-0.039433	0.173517	0.615347	0.768922	-0.082702	0.787112	-0.611241	-0.981352	0.042470	0.187468
31	675190947													0.039717	-0.110875	-0.026749	0.173869	0.616718	0.767743	-0.083663	0.786049	-0.612476	-0.981208	0.042259	0.188266
32	675207614													0.057107	-0.145006	-0.010644	0.174211	0.618226	0.766451	-0.084593	0.784872	-0.613857	-0.981068	0.042105	0.189031
33	675224281													0.063238	-0.136421	0.006061	0.174473	0.619789	0.765128	-0.085505	0.783647	-0.615293	-0.980943	0.041929	0.189720
34	675240948													0.075808	-0.108651	0.053164	0.174686	0.621700	0.763527	-0.086392	0.782137	-0.617088	-0.980827	0.041834	0.190339
35	675257615													0.090797	-0.085138	0.041659	0.174934	0.623681	0.761853	-0.087232	0.780559	-0.618965	-0.980708	0.041821	0.190951
36	675274282													0.110190	-0.086451	0.039527	0.175207	0.625653	0.760171	-0.087941	0.778974	-0.620860	-0.980596	0.041929	0.191502
37	675290949													0.133057	-0.057740	0.061110	0.175546	0.627506	0.758564	-0.088454	0.777467	-0.622673	-0.980489	0.042210	0.191987
38	675307616													0.147159	-0.066534	0.052463	0.176031	0.629362	0.756913	-0.088837	0.775939	-0.624521	-0.980368	0.042693	0.192500
39	675324283													0.142418	-0.007653	0.036228	0.176439	0.631229	0.755261	-0.089211	0.774396	-0.626380	-0.980260	0.043141	0.192947
40	675340950													0.135354	-0.010773	0.047525	0.176914	0.632762	0.753866	-0.089569	0.773120	-0.627904	-0.980142	0.043562	0.193452
41	675357617													0.142459	-0.069614	0.031024	0.177566	0.634394	0.752340	-0.090096	0.771757	-0.629503	-0.979976	0.043995	0.194194
42	675374284													0.146764	-0.039581	0.037430	0.178201	0.636362	0.750525	-0.090841	0.770115	-0.631404	-0.979792	0.044338	0.195044
43	675390951													0.141347	-0.051303	0.033975	0.178950	0.638117	0.748855	-0.091498	0.768637	-0.633108	-0.979594	0.044776	0.195933
44	675407618													0.140249	-0.056801	0.057158	0.179835	0.639874	0.747142	-0.092100	0.767140	-0.634833	-0.979376	0.045353	0.196891
45	675424285													0.195920	-0.030228	0.078529	0.180605	0.642187	0.744969	-0.092721	0.765167	-0.637120	-0.979176	0.045993	0.197737
46	675440952													0.189635	-0.009835	0.077730	0.181399	0.644296	0.742952	-0.093200	0.763349	-0.639228	-0.978983	0.046712	0.198519
47	675457619													0.158496	-0.072255	0.082231	0.182386	0.646167	0.741082	-0.093603	0.761712	-0.641119	-0.978761	0.047564	0.199409
48	675474286													0.162476	-0.139724	0.056471	0.183324	0.648119	0.739144	-0.093928	0.759995	-0.643106	-0.978555	0.048470	0.200202
49	675490953													0.170967	-0.084962	0.042015	0.183997	0.650344	0.737019	-0.094253	0.758040	-0.645362	-0.978397	0.049279	0.200774
50	675507620													0.172082	-0.075402	0.034080	0.184926	0.652421	0.734948	-0.094484	0.756186	-0.647500	-0.978200	0.050299	0.201482
51	675524287													0.210965	-0.193659	0.089650	0.186156	0.654423	0.732855	-0.094625	0.754367	-0.649597	-0.977953	0.051580	0.202355
52	675540954													0.219150	-0.189792	0.072389	0.187265	0.656460	0.730748	-0.094630	0.752504	-0.651754	-0.977741	0.052900	0.203038
53	675557621													0.258854	-0.193976	0.047619	0.188045	0.658404	0.728795	-0.094506	0.750719	-0.653826	-0.977603	0.054073	0.203393
54	675574288													0.256701	-0.233570	0.038135	0.188908	0.660439	0.726728	-0.094411	0.748839	-0.655992	-0.977446	0.055311	0.203815
55	675590955													0.267543	-0.295291	0.052737	0.189954	0.662508	0.724569	-0.094348	0.746908	-0.658199	-0.977249	0.056666	0.204385
56	675607622													0.290263	-0.273556	0.008820	0.190927	0.664700	0.722302	-0.094277	0.744854	-0.660533	-0.977066	0.058017	0.204879
57	675624289													0.306164	-0.262484	-0.020294	0.191920	0.667025	0.719892	-0.094263	0.742665	-0.662996	-0.976873	0.059383	0.205408
58	675640956													0.332396	-0.235964	-0.039128	0.192786	0.669533	0.717328	-0.094184	0.740293	-0.665655	-0.976710	0.060769	0.205778
59	675657623													0.295603	-0.181412	-0.069408	0.193179	0.671777	0.715121	-0.093617	0.738145	-0.668116	-0.976687	0.062118	0.205483
60	675674290													0.253019	-0.086416	-0.106582	0.193214	0.673363	0.713618	-0.092364	0.736576	-0.670018	-0.976800	0.063544	0.204511
61	675690957													0.291772	-0.042171	-0.089830	0.192804	0.673750	0.713363	-0.090369	0.736107	-0.670806	-0.977067	0.064868	0.202810
62	675707624													0.313944	0.060341	0.096568	0.192123	0.673646	0.713646	-0.087683	0.736067	-0.671205	-0.977446	0.066379	0.200483
63	675724291													0.327653	0.016710	0.232797	0.192243	0.672657	0.714545	-0.084802	0.736790	-0.670782	-0.977676	0.068359	0.198686
64	675740958													0.339097	-0.068714	0.125177	0.192968	0.670537	0.716340	-0.082113	0.738537	-0.669194	-0.977763	0.070312	0.197574
65	675757625													0.363048	-0.124728	0.013200	0.193593	0.667974	0.718563	-0.079538	0.740693	-0.667118	-0.977853	0.071997	0.196522
66	675774292													0.292148	-0.112372	-0.166100	0.194216	0.664567	0.721548	-0.077135	0.743622	-0.664136	-0.977922	0.073329	0.195684
67	675790959													0.206487	-0.252422	-0.316648	0.194606	0.660772	0.724920	-0.075170	0.746923	-0.660648	-0.977997	0.074074	0.195026
68	675807626													0.158100	-0.415373	-0.273125	0.194321	0.657047	0.728374	-0.073524	0.750195	-0.657116	-0.978179	0.074138	0.194087
69	675824293													0.058178	-0.505528	-0.005000	0.193192	0.653485	0.731871	-0.072084	0.753361	-0.653645	-0.978509	0.073523	0.192649
70	675840960													-0.054655	-0.577094	0.200233	0.191997	0.650141	0.735156	-0.070534	0.756297	-0.650415	-0.978858	0.073024	0.191064
71	675857627													-0.156877	-0.612653	0.251593	0.190760	0.646775	0.738439	-0.068571	0.759195	-0.647241	-0.979239	0.072832	0.189174
72	675874294													-0.235900	-0.601620	0.283672	0.189285	0.643344	0.741808	-0.066177	0.762106	-0.644062	-0.979690	0.072821	0.186829
73	675890961													-0.241369	-0.749255	0.271077	0.188294	0.639915	0.745020	-0.063366	0.764924	-0.640996	-0.980066	0.073486	0.184579
74	675907628													-0.304433	-0.822302	0.189647	0.187655	0.636207	0.748349	-0.059864	0.767876	-0.637796	-0.980409	0.074886	0.182182
75	675924295													-0.376654	-0.924784	0.142532	0.186952	0.632157	0.751949	-0.055763	0.771039	-0.634342	-0.980785	0.076660	0.179399
76	675940962													-0.414732	-0.936371	0.071100	0.186501	0.627671	0.755808	-0.051198	0.774470	-0.630535	-0.981120	0.078900	0.176575
77	675957629													-0.323659	-0.839008	-0.115862	0.186545	0.622663	0.759929	-0.046155	0.778207	-0.626310	-0.981362	0.081761	0.173910
78	675974296													-0.242683	-0.654932	-0.144411	0.186659	0.617178	0.764362	-0.041004	0.782253	-0.621610	-0.981569	0.084687	0.171321
79	675990963													-0.220670	-0.474132	-0.146776	0.186645	0.611296	0.769078	-0.036663	0.786623	-0.616344	-0.981743	0.086840	0.169231
80	676007630													-0.215612	-0.407255	-0.201274	0.186504	0.605435	0.773734	-0.033349	0.791000	-0.610907	-0.981888	0.088134	0.167715
81	676024297													-0.254217	-0.414327	-0.094847	0.186141	0.599957	0.778077	-0.030773	0.795088	-0.605712	-0.982041	0.088804	0.166461
82	676040964													-0.347329	-0.382200	0.113894	0.185639	0.594504	0.782370	-0.028479	0.799131	-0.600482	-0.982205	0.089192	0.165280
83	676057631													-0.475269	-0.387616	0.104559	0.185184	0.589088	0.786564	-0.026251	0.803088	-0.595283	-0.982353	0.089589	0.164183
84	676074298													-0.580095	-0.435388	0.136182	0.184651	0.583800	0.790621	-0.023823	0.806877	-0.590239	-0.982515	0.090153	0.162899
85	676090965													-0.570459	-0.497279	0.192912	0.184084	0.578667	0.794517	-0.021321	0.810491	-0.585362	-0.982679	0.090816	0.161536
86	676107632													-0.556571	-0.626363	0.223498	0.183818	0.573633	0.798220	-0.019010	0.813980	-0.580581	-0.982776	0.091547	0.160529
87	676124299													-0.598087	-0.648689	0.243579	0.183870	0.568700	0.801731	-0.016894	0.817345	-0.575901	-0.982805	0.092346	0.159893
88	676140966													-0.601779	-0.705852	0.265182	0.184286	0.564161	0.804836	-0.014867	0.820367	-0.571643	-0.982760	0.093380	0.159569
89	676157633													-0.571233	-0.687831	0.349255	0.184900	0.560054	0.807559	-0.012865	0.823037	-0.567842	-0.982673	0.094605	0.159384
90	676174300													-0.552646	-0.666466	0.294001	0.185923	0.556520	0.809765	-0.010949	0.825256	-0.564653	-0.982503	0.096115	0.159527
91	676190967													-0.547503	-0.579890	0.162176	0.187457	0.553290	0.811622	-0.008975	0.827199	-0.561837	-0.982232	0.098036	0.160030
92	676207634													-0.584259	-0.580047	-0.007232	0.189247	0.550376	0.813186	-0.007023	0.828889	-0.559369	-0.981904	0.100148	0.160730
93	676224301													-0.607485	-0.630483	-0.140152	0.191271	0.547840	0.814424	-0.005106	0.830288	-0.557312	-0.981524	0.102439	0.161607
94	676240968													-0.559577	-0.614305	-0.203685	0.193588	0.545960	0.815139	-0.003158	0.831199	-0.555966	-0.981078	0.105055	0.162635
95	676257635													-0.617134	-0.457705	-0.181415	0.195353	0.545150	0.815260	-0.001299	0.831419	-0.555644	-0.980732	0.107487	0.163128
96	676274302													-0.635767	-0.298348	-0.141226	0.196625	0.545654	0.814617	0.000149	0.830819	-0.556542	-0.980479	0.109551	0.163279
97	676290969													-0.701974	-0.239998	-0.206686	0.197744	0.547283	0.813252	0.000762	0.829548	-0.558435	-0.980253	0.111047	0.163622
98	676307636													-0.753968	-0.226980	-0.351950	0.198713	0.549625	0.811434	0.000286	0.827913	-0.560857	-0.980058	0.111681	0.164360
99	676324303													-0.823209	-0.161412	-0.349915	0.199247	0.552990	0.809013	-0.001408	0.825727	-0.564068	-0.979948	0.111250	0.165303
100	676340970													-0.786940	-0.064291	-0.482521	0.199495	0.557416	0.805909	-0.004322	0.822934	-0.568121	-0.979889	0.109854	0.166580
101	676357637													-0.845669	0.034762	-0.662899	0.199916	0.562434	0.802311	-0.008102	0.819761	-0.572648	-0.979780	0.107981	0.168440
102	676374304													-0.879055	0.095162	-0.734936	0.200073	0.567836	0.798457	-0.012406	0.816337	-0.577443	-0.979702	0.105625	0.170372
103	676390971													-0.813448	0.164343	-0.684478	0.199440	0.574131	0.794102	-0.017212	0.812310	-0.582973	-0.979759	0.102600	0.171888
104	676407638													-0.786521	0.287128	-0.630989	0.197683	0.581508	0.789158	-0.022356	0.807509	-0.589431	-0.980011	0.098878	0.172631
105	676424305													-0.555468	0.141985	-0.528835	0.195066	0.589679	0.783727	-0.027630	0.802064	-0.596598	-0.980401	0.094721	0.172748
106	676440972													-0.183508	-0.142255	-0.132979	0.191337	0.598225	0.778150	-0.032729	0.796245	-0.604088	-0.980979	0.090117	0.171930
107	676457639													-0.218352	0.003109	0.613515	0.186293	0.606849	0.772677	-0.036959	0.790216	-0.611713	-0.981799	0.085401	0.169640
108	676474306													-0.290272	0.196846	1.051223	0.181688	0.614542	0.767677	-0.039369	0.784590	-0.618764	-0.982568	0.082200	0.166744
109	676490973													0.025876	0.101026	1.229116	0.178040	0.620318	0.763877	-0.039792	0.780183	-0.624285	-0.983218	0.080752	0.163587
110	676507640													0.257388	0.150230	1.135226	0.174590	0.624607	0.761173	-0.038902	0.776818	-0.628522	-0.983873	0.080123	0.159923
111	676524307													0.235044	0.221657	0.731179	0.171457	0.628271	0.758866	-0.037379	0.773867	-0.632244	-0.984482	0.080037	0.156169
112	676540974													-0.003023	-0.134618	0.070870	0.168441	0.631687	0.756703	-0.036128	0.771112	-0.635673	-0.985049	0.079735	0.152709
113	676557641													-0.167841	-0.679372	-0.277749	0.165327	0.634972	0.754638	-0.035647	0.768514	-0.638839	-0.985594	0.078717	0.149691
114	676574308													-0.248643	-1.059478	-0.505261	0.162384	0.638316	0.752452	-0.035561	0.765863	-0.642019	-0.986087	0.077496	0.147063
115	676590975													-0.252770	-1.134444	-0.466155	0.159635	0.641975	0.749923	-0.035644	0.762918	-0.645512	-0.986532	0.076316	0.144671
116	676607642													-0.023049	-0.945370	-0.249240	0.157278	0.646145	0.746834	-0.035850	0.759483	-0.649539	-0.986903	0.075384	0.142614
117	676624309													0.321151	-0.703923	-0.048784	0.155235	0.650864	0.743154	-0.036164	0.755513	-0.654135	-0.987215	0.074669	0.140820
118	676640976													0.719649	-0.448141	0.093357	0.153039	0.655718	0.739333	-0.036587	0.751393	-0.658840	-0.987543	0.073778	0.138983
119	676657643													0.865597	-0.247628	0.212711	0.150323	0.660183	0.735909	-0.037138	0.747612	-0.663096	-0.987939	0.072348	0.136901
120	676674310													0.944676	-0.136466	0.263573	0.147357	0.663865	0.733191	-0.037751	0.744519	-0.666533	-0.988363	0.070540	0.134772
121	676690977													0.963797	-0.140135	0.324099	0.144624	0.666509	0.731334	-0.038441	0.742332	-0.668929	-0.988740	0.068630	0.132980
122	676707644													0.913076	-0.197299	0.446568	0.141917	0.668227	0.730296	-0.039416	0.740993	-0.670355	-0.989093	0.066349	0.131499
123	676724311													0.790482	-0.280667	0.446097	0.139586	0.669438	0.729636	-0.041102	0.740131	-0.671205	-0.989357	0.063701	0.130827
124	676740978													0.713046	-0.490134	0.376331	0.138183	0.670303	0.729108	-0.043603	0.739574	-0.671661	-0.989446	0.061021	0.131424
125	676757645													0.653834	-0.578896	0.307448	0.137722	0.670756	0.728779	-0.046702	0.739370	-0.671678	-0.989369	0.058469	0.133153
126	676774312													0.640625	-0.587016	0.140018	0.138025	0.670689	0.728783	-0.049992	0.739606	-0.671181	-0.989166	0.056206	0.135613
127	676790979													0.631596	-0.571840	-0.082937	0.138716	0.670385	0.728932	-0.053259	0.740033	-0.670459	-0.988899	0.054182	0.138359
128	676807646													0.638500	-0.603730	-0.318694	0.139455	0.670105	0.729049	-0.056340	0.740420	-0.669780	-0.988624	0.052330	0.141009
129	676824313													0.638360	-0.575282	-0.473649	0.139900	0.669979	0.729079	-0.059078	0.740656	-0.669282	-0.988402	0.050560	0.143199
130	676840980													0.660722	-0.490064	-0.459579	0.140038	0.670000	0.729033	-0.061336	0.740744	-0.668981	-0.988244	0.048967	0.144828
131	676857647													0.628099	-0.404770	-0.301170	0.139808	0.670072	0.729011	-0.063104	0.740775	-0.668783	-0.988166	0.047498	0.145851
132	676874314													0.550674	-0.269571	-0.072097	0.139397	0.669863	0.729282	-0.064379	0.741045	-0.668362	-0.988142	0.046217	0.146424
133	676890981													0.488485	-0.208829	0.142216	0.139192	0.669039	0.730077	-0.065341	0.741852	-0.667373	-0.988107	0.045189	0.146976
134	676907648													0.458545	-0.046501	0.174167	0.139505	0.666819	0.732045	-0.066093	0.743896	-0.665019	-0.988013	0.044391	0.147849
135	676924315													0.387245	-0.297375	0.067062	0.140288	0.663711	0.734716	-0.066981	0.746716	-0.661762	-0.987843	0.043625	0.149211
136	676940982													0.404516	-0.233070	-0.017332	0.141496	0.660467	0.737402	-0.068124	0.749627	-0.658345	-0.987592	0.042919	0.151063
137	676957649													0.497667	-0.216139	-0.030045	0.142848	0.657270	0.739994	-0.069573	0.752480	-0.654930	-0.987296	0.042072	0.153219
138	676974316													0.482516	-0.158400	-0.001329	0.144080	0.654116	0.742545	-0.071405	0.755291	-0.651488	-0.986986	0.040845	0.155529
139	676990983													0.462392	-0.189850	-0.008813	0.145073	0.651202	0.744909	-0.073630	0.757892	-0.648212	-0.986678	0.039190	0.157897
140	677007650													0.443636	-0.299349	-0.022037	0.145740	0.648316	0.747292	-0.076167	0.760468	-0.644893	-0.986387	0.037068	0.160210
141	677024317													0.374633	-0.382007	-0.062372	0.146091	0.645388	0.749754	-0.078857	0.763071	-0.641486	-0.986123	0.034592	0.162371
142	677040984													0.333645	-0.372190	-0.050358	0.146264	0.642420	0.752266	-0.081390	0.765681	-0.638051	-0.985892	0.032097	0.164277
143	677057651													0.382805	-0.374860	-0.078124	0.146534	0.639501	0.754696	-0.083587	0.768208	-0.634720	-0.985668	0.029925	0.166022
144	677074318													0.477500	-0.338607	-0.166397	0.147045	0.636492	0.757137	-0.085295	0.770765	-0.631384	-0.985445	0.028262	0.167627
145	677090985													0.642586	-0.297960	-0.183860	0.147680	0.633647	0.759395	-0.086407	0.773145	-0.628316	-0.985253	0.027173	0.168930
146	677107652													0.667938	-0.141964	-0.153124	0.148159	0.631069	0.761447	-0.086911	0.775274	-0.625618	-0.985137	0.026513	0.169710
147	677124319													0.679496	-0.003812	-0.000524	0.148656	0.628723	0.763288	-0.086787	0.777181	-0.623264	-0.985073	0.026408	0.170098
148	677140986													0.583385	0.148126	0.053238	0.149146	0.626282	0.765197	-0.086148	0.779140	-0.620902	-0.985055	0.026685	0.170159
149	677157653													0.497184	0.286390	-0.062149	0.149758	0.623673	0.767206	-0.084922	0.781203	-0.618475	-0.985069	0.027469	0.169955
150	677174320													0.481800	0.296247	-0.022904	0.150299	0.620811	0.769418	-0.083304	0.783443	-0.615855	-0.985125	0.028467	0.169467
151	677190987													0.371408	0.296337	0.254881	0.150824	0.617624	0.771876	-0.081611	0.785922	-0.612916	-0.985186	0.029449	0.168941
152	677207654													0.187829	0.301792	0.296097	0.151382	0.614215	0.774482	-0.080285	0.788563	-0.609690	-0.985210	0.030117	0.168686
153	677224321													-0.011619	0.325429	0.102146	0.151865	0.611131	0.776824	-0.079510	0.790947	-0.606697	-0.985198	0.030371	0.168708
154	677240988													-0.113069	0.243219	0.025675	0.152961	0.608492	0.778679	-0.079387	0.792970	-0.604066	-0.985038	0.030582	0.169600
155	677257655													-0.056016	0.210646	0.119571	0.155299	0.606108	0.780074	-0.079739	0.794769	-0.601652	-0.984644	0.031234	0.171757
156	677274322													-0.083451	0.136669	0.250674	0.158448	0.603973	0.781096	-0.080634	0.796362	-0.599421	-0.984069	0.031994	0.174883
157	677290989													-0.016045	0.082035	0.029325	0.162340	0.602179	0.781681	-0.081873	0.797678	-0.597500	-0.983332	0.033000	0.178797
158	677307656													0.025671	0.051209	-0.155457	0.166616	0.600631	0.781973	-0.082843	0.798782	-0.595890	-0.982535	0.034504	0.182848
159	677324323													0.208517	0.139204	-0.180887	0.170944	0.599287	0.782070	-0.083090	0.799694	-0.594630	-0.981771	0.036666	0.186498
160	677340990													0.421206	0.117490	-0.108741	0.175846	0.597745	0.782163	-0.082626	0.800702	-0.593337	-0.980944	0.039709	0.190189
161	677357657													0.443709	0.154403	-0.089073	0.180564	0.596070	0.782366	-0.081644	0.801779	-0.592018	-0.980169	0.043021	0.193438
162	677374324													0.251510	0.311492	-0.017826	0.183740	0.594253	0.783009	-0.080228	0.802979	-0.590583	-0.979695	0.045695	0.195215
163	677390991													-0.000094	0.280131	-0.052804	0.185776	0.591876	0.784328	-0.078687	0.804621	-0.588552	-0.979436	0.047623	0.196052
164	677407658													-0.116372	0.184225	-0.237612	0.187696	0.588802	0.786182	-0.077498	0.806790	-0.585734	-0.979165	0.049012	0.197062
165	677424325													-0.301212	0.221253	-0.418434	0.188822	0.585694	0.788231	-0.077052	0.809032	-0.582692	-0.978984	0.049291	0.197892
166	677440992													-0.343070	0.280114	-0.547282	0.189506	0.582868	0.790160	-0.077343	0.811103	-0.579768	-0.978829	0.048756	0.198790
167	677457659													-0.386458	0.283763	-0.583819	0.189895	0.580388	0.791890	-0.078106	0.812940	-0.577086	-0.978693	0.047734	0.199706
168	677474326													-0.397429	0.298210	-0.494008	0.190075	0.578131	0.793496	-0.078863	0.814610	-0.574623	-0.978597	0.046644	0.200430
169	677490993													-0.470294	0.488049	-0.289773	0.190502	0.575765	0.795112	-0.079121	0.816315	-0.572162	-0.978493	0.046088	0.201065
170	677507660													-0.470681	0.710747	-0.162029	0.191373	0.573315	0.796672	-0.078676	0.818022	-0.569780	-0.978359	0.046361	0.201654
171	677524327													-0.349308	0.854171	-0.136239	0.192909	0.570475	0.798339	-0.077405	0.819933	-0.567202	-0.978159	0.047623	0.202330
172	677540994													-0.341393	0.976965	-0.227482	0.194526	0.566910	0.800483	-0.075363	0.822298	-0.564045	-0.977998	0.049395	0.202683
173	677557661													-0.326284	1.040816	-0.313432	0.196199	0.562512	0.803173	-0.072531	0.825174	-0.560203	-0.977878	0.051657	0.202697
174	677574328													-0.387078	1.164907	-0.261408	0.198006	0.557194	0.806430	-0.069088	0.828606	-0.555553	-0.977763	0.054288	0.202564
175	677590995													-0.328853	1.207824	-0.081214	0.199955	0.551177	0.810076	-0.065340	0.832433	-0.550260	-0.977624	0.057097	0.202463
176	677607662													-0.139540	1.146972	0.158091	0.202144	0.544583	0.813982	-0.061771	0.836575	-0.544359	-0.977406	0.059758	0.202748
177	677624329													-0.202795	0.967666	0.272078	0.204140	0.538063	0.817811	-0.058825	0.840636	-0.538396	-0.977173	0.061800	0.203259
178	677640996													-0.466655	0.740932	0.324398	0.205554	0.532295	0.821225	-0.056796	0.844218	-0.532982	-0.976996	0.062915	0.203764
179	677657663													-0.647898	0.472537	0.237980	0.206313	0.527987	0.823811	-0.055443	0.846880	-0.528887	-0.976914	0.063441	0.203995
180	677674330													-0.783644	0.552657	-0.088281	0.206863	0.524600	0.825835	-0.054080	0.848933	-0.525726	-0.976874	0.064092	0.203983
181	677690997													-0.785748	0.875480	-0.509388	0.207279	0.521246	0.827851	-0.052018	0.850905	-0.522737	-0.976898	0.065289	0.203489
182	677707664													-0.471875	1.142512	-0.562820	0.207222	0.517853	0.829993	-0.049305	0.852858	-0.519809	-0.977051	0.066794	0.202264
183	677724331													0.263560	0.975458	0.204559	0.205176	0.514870	0.832353	-0.046509	0.854615	-0.517176	-0.977619	0.067400	0.199292
184	677740998													-0.226150	0.884639	1.554764	0.198894	0.512452	0.835364	-0.044859	0.856261	-0.514591	-0.978994	0.064875	0.193294
185	677757665													-1.424798	0.402023	2.872976	0.190516	0.510016	0.838801	-0.045642	0.858129	-0.511401	-0.980623	0.059145	0.186765
186	677774332													-1.316356	-0.714210	3.524488	0.185150	0.508890	0.840684	-0.048662	0.859174	-0.509365	-0.981505	0.053399	0.183840
187	677790999													-0.655009	-1.143730	3.462461	0.183967	0.511281	0.839493	-0.053300	0.858002	-0.510874	-0.981486	0.049239	0.185095
188	677807666													-0.182263	-0.836980	2.252359	0.184734	0.517115	0.835742	-0.058522	0.854658	-0.515883	-0.981045	0.046392	0.188146
189	677824333													0.728082	-0.430697	0.914865	0.186520	0.524197	0.830920	-0.062079	0.850360	-0.522527	-0.980488	0.045880	0.191151
190	677841000													1.403844	-0.140930	0.121787	0.186826	0.530641	0.826750	-0.062144	0.846266	-0.529124	-0.980426	0.047477	0.191080
191	677857667													2.047799	-0.133631	-0.445934	0.185711	0.534181	0.824719	-0.058990	0.843867	-0.533300	-0.980832	0.050390	0.188227
192	677874334													2.430930	-0.308172	-0.938746	0.183877	0.533797	0.825379	-0.054428	0.843937	-0.533674	-0.981441	0.053207	0.184234
193	677891001													2.728724	-0.537645	-1.294374	0.182255	0.529464	0.828523	-0.050385	0.846558	-0.529906	-0.981960	0.054833	0.180967
194	677907668													3.160764	-0.858506	-1.571126	0.181038	0.522796	0.833012	-0.048548	0.850726	-0.523363	-0.982277	0.054307	0.179395
195	677924335													3.043586	-1.199096	-1.534795	0.177790	0.516118	0.837862	-0.050050	0.855067	-0.516096	-0.982795	0.049822	0.177854
196	677941002													2.434612	-1.442122	-0.743770	0.173476	0.509847	0.842593	-0.054959	0.859243	-0.508607	-0.983303	0.041923	0.177079
197	677957669													1.668383	-1.769578	0.007742	0.169335	0.504351	0.846732	-0.062668	0.862911	-0.501455	-0.983564	0.031851	0.177728
198	677974336													1.049919	-1.952260	0.305521	0.165304	0.500671	0.849708	-0.070729	0.865360	-0.496134	-0.983703	0.021914	0.178459
199	677991003													0.861253	-1.907520	0.125842	0.160430	0.499329	0.851430	-0.076210	0.866294	-0.493686	-0.984101	0.014314	0.177034
200	678007670													0.819417	-1.677677	-0.160267	0.154927	0.499793	0.852177	-0.077884	0.866086	-0.493791	-0.984851	0.010131	0.173106
201	678024337													0.699911	-1.497953	-0.086571	0.151020	0.500328	0.852564	-0.075998	0.865780	-0.494621	-0.985605	0.009904	0.168774
202	678041004													0.715504	-1.383012	0.238575	0.149378	0.499911	0.853097	-0.071754	0.865983	-0.494898	-0.986173	0.012713	0.165230
203	678057671													0.762166	-1.297243	0.301443	0.149283	0.499162	0.853553	-0.066580	0.866341	-0.494996	-0.986550	0.017065	0.162564
204	678074338													0.805268	-1.119569	0.145694	0.149672	0.498587	0.853820	-0.061513	0.866571	-0.495249	-0.986820	0.021604	0.160372
205	678091005													0.731948	-1.008716	-0.145568	0.149842	0.498057	0.854100	-0.057051	0.866769	-0.495436	-0.987063	0.025510	0.158293
206	678107672													0.636822	-0.978382	-0.371113	0.149547	0.497297	0.854594	-0.053308	0.867112	-0.495253	-0.987317	0.028506	0.156184
207	678124339													0.397495	-1.174289	-0.598533	0.149073	0.496412	0.855191	-0.050271	0.867541	-0.494818	-0.987547	0.030773	0.154283
208	678141006													0.347262	-1.258302	-0.441557	0.149699	0.495341	0.855703	-0.047450	0.868057	-0.494192	-0.987592	0.033377	0.153451
209	678157673													0.335818	-1.248412	-0.259909	0.151185	0.494249	0.856073	-0.044937	0.868569	-0.493527	-0.987484	0.036144	0.153525
210	678174340													0.139049	-1.211766	-0.344748	0.152932	0.494172	0.855807	-0.042888	0.868497	-0.493836	-0.987306	0.038820	0.154015
211	678191007													0.007733	-1.126931	-0.531662	0.155615	0.495825	0.854366	-0.041155	0.867406	-0.495896	-0.986960	0.042007	0.155387
212	678207674													-0.040486	-1.039100	-0.862974	0.158758	0.499033	0.851917	-0.039732	0.865390	-0.499521	-0.986518	0.045455	0.157215
213	678224341													-0.125707	-0.789828	-0.998107	0.161443	0.503184	0.848965	-0.038513	0.862807	-0.504065	-0.986130	0.048681	0.158674
214	678241008													-0.148811	-0.481952	-1.019933	0.162919	0.507853	0.845898	-0.037706	0.859931	-0.509016	-0.985919	0.051033	0.159249
215	678257675													-0.146693	-0.163351	-1.018405	0.163222	0.512946	0.842760	-0.037407	0.856819	-0.514258	-0.985880	0.052414	0.159039
216	678274342													-0.267942	0.022912	-0.876747	0.163193	0.518086	0.839616	-0.037807	0.853684	-0.519418	-0.985869	0.053022	0.158903
217	678291009													-0.570436	0.133353	-0.596437	0.162246	0.522779	0.836886	-0.039255	0.850871	-0.523905	-0.985969	0.052149	0.158573
218	678307676													-0.833652	0.046723	-0.443786	0.160560	0.527107	0.834493	-0.042037	0.848347	-0.527769	-0.986130	0.049659	0.158369
219	678324343													-0.940760	-0.101202	-0.626653	0.158714	0.531469	0.832076	-0.046070	0.845827	-0.531464	-0.986249	0.046018	0.158729
220	678341010													-0.788587	-0.251817	-0.803880	0.156887	0.536002	0.829511	-0.050607	0.843172	-0.535257	-0.986319	0.041996	0.159408
221	678357677													-0.597343	-0.142629	-0.642015	0.154661	0.540045	0.827304	-0.054614	0.840772	-0.538627	-0.986457	0.038122	0.159529
222	678374344													-0.453445	0.103178	-0.409176	0.151919	0.543205	0.825742	-0.057308	0.838874	-0.541300	-0.986730	0.034912	0.158570
223	678391011													-0.219539	0.219954	-0.449792	0.148638	0.545356	0.824921	-0.058756	0.837584	-0.543140	-0.987145	0.032263	0.156540
224	678407678													-0.285716	0.447417	-0.595240	0.144390	0.546287	0.825059	-0.059285	0.837074	-0.543867	-0.987743	0.029616	0.153252
225	678424345													-0.616805	0.442772	-0.744147	0.139288	0.545070	0.826739	-0.059086	0.837965	-0.542517	-0.988488	0.026718	0.148924
226	678441012													-1.080977	0.211244	-0.833201	0.133853	0.542132	0.829564	-0.058777	0.839966	-0.539446	-0.989257	0.023447	0.144297
227	678457679													-1.316331	-0.468073	-0.607598	0.128447	0.537842	0.833203	-0.058954	0.842818	-0.534960	-0.989962	0.019593	0.139966
228	678474346													-1.245663	-1.175053	0.046041	0.122270	0.533649	0.836821	-0.059999	0.845579	-0.530467	-0.990682	0.014652	0.135407
229	678491013													-0.648203	-1.883739	0.780949	0.115358	0.531129	0.839401	-0.061481	0.847240	-0.527640	-0.991420	0.009260	0.130390
230	678507680													-0.379014	-2.154981	2.241326	0.108437	0.530613	0.840649	-0.061128	0.847595	-0.527112	-0.992222	0.005771	0.124346
231	678524347													-0.675296	-0.789135	4.195519	0.102058	0.531427	0.840934	-0.055179	0.847070	-0.528609	-0.993247	0.007547	0.115774
232	678541014													0.428245	0.681732	4.270652	0.100563	0.528745	0.842802	-0.044303	0.848636	-0.527119	-0.993944	0.015670	0.108767
233	678557681													1.863143	0.514604	3.267183	0.101523	0.522407	0.846631	-0.032605	0.852318	-0.522006	-0.994299	0.025391	0.103563
234	678574348													1.476554	0.123898	1.893327	0.100195	0.514152	0.851827	-0.022916	0.857101	-0.514639	-0.994704	0.032044	0.097660
235	678591015													1.093361	-0.914105	0.742172	0.096023	0.504204	0.858229	-0.016898	0.862915	-0.505067	-0.995236	0.033995	0.091380
236	678607682													0.584167	-1.368538	0.415415	0.090121	0.494915	0.864255	-0.014726	0.868354	-0.495727	-0.995822	0.031949	0.085545
237	678624349													0.364371	-1.702363	0.522046	0.085241	0.489466	0.867846	-0.015488	0.871562	-0.490040	-0.996240	0.028330	0.081874
238	678641016													0.765237	-1.784787	0.670527	0.081814	0.488503	0.868718	-0.017787	0.872217	-0.488795	-0.996489	0.024538	0.080049
239	678657683													1.326476	-1.745446	0.532743	0.079199	0.490901	0.867608	-0.020291	0.870956	-0.490942	-0.996652	0.021278	0.078940
240	678674350													1.979642	-1.746711	-0.082926	0.079454	0.495399	0.865024	-0.022027	0.868428	-0.495325	-0.996595	0.020302	0.079912
241	678691017													2.556621	-1.527731	-0.678492	0.082626	0.501317	0.861310	-0.022345	0.864980	-0.501309	-0.996330	0.022175	0.082672
242	678707684													2.876621	-1.099862	-0.974222	0.086707	0.508429	0.856727	-0.021306	0.860716	-0.508640	-0.996006	0.025849	0.085463
243	678724351													2.862410	-0.535625	-1.102730	0.089382	0.515807	0.852030	-0.018835	0.856176	-0.516341	-0.995819	0.030104	0.086242
244	678741018													2.785731	-0.069526	-0.886395	0.090884	0.522007	0.848085	-0.015191	0.852237	-0.522935	-0.995746	0.034643	0.085384
245	678757685													2.645945	0.195957	-0.611219	0.091727	0.525864	0.845608	-0.011268	0.849682	-0.527176	-0.995720	0.038828	0.083864
246	678774352													2.396902	0.440351	-0.572829	0.091341	0.526976	0.844957	-0.008307	0.848878	-0.528523	-0.995785	0.041257	0.081915
247	678791019													2.089480	0.674652	-0.583236	0.090109	0.526197	0.845575	-0.007648	0.849369	-0.527744	-0.995903	0.041087	0.080560
248	678807686													1.773885	0.846509	-0.371749	0.089040	0.525183	0.846318	-0.009836	0.850115	-0.526505	-0.995980	0.038556	0.080860
249	678824353													1.622612	0.717586	-0.028107	0.089164	0.525100	0.846357	-0.014516	0.850336	-0.526039	-0.995911	0.034618	0.083441
250	678841020													1.281910	0.427644	0.120557	0.090129	0.525970	0.845714	-0.020664	0.849975	-0.526418	-0.995716	0.029970	0.087476
251	678857687													0.961022	0.107660	0.026322	0.092060	0.527115	0.844793	-0.027082	0.849407	-0.527043	-0.995385	0.025641	0.092471
252	678874354													0.878193	-0.047134	-0.095963	0.094832	0.528396	0.843685	-0.032636	0.848699	-0.527868	-0.994958	0.022525	0.097728
253	678891021													0.822095	0.009107	-0.263132	0.098432	0.530127	0.842185	-0.036836	0.847656	-0.529266	-0.994462	0.021074	0.102964
254	678907688													0.952346	0.207955	-0.404715	0.102234	0.532399	0.840298	-0.039420	0.846228	-0.531360	-0.993979	0.021199	0.107500
255	678924355													1.018039	0.310174	-0.405572	0.105538	0.535041	0.838208	-0.040806	0.844536	-0.533942	-0.993578	0.022147	0.110963
256	678941022													0.823187	0.655110	-0.563125	0.109142	0.537188	0.836371	-0.041407	0.843124	-0.536122	-0.993163	0.023882	0.114264
257	678957689													0.769745	0.781166	-0.804436	0.113812	0.538114	0.835153	-0.041517	0.842457	-0.537162	-0.992635	0.026462	0.118222
258	678974356													0.657165	0.895908	-0.878432	0.119268	0.537433	0.834830	-0.041286	0.842789	-0.536658	-0.992003	0.029539	0.122706
259	678991023													0.733367	0.911664	-0.840692	0.125163	0.534961	0.835554	-0.041017	0.844247	-0.534383	-0.991288	0.032613	0.127611
260	679007690													0.656955	0.951567	-0.628769	0.131175	0.530842	0.837257	-0.040612	0.846723	-0.530481	-0.990527	0.035583	0.132628
261	679024357													0.512498	0.927463	-0.666200	0.136138	0.525604	0.839766	-0.040414	0.849899	-0.525394	-0.989865	0.037588	0.136945
262	679041024													0.237665	0.890704	-0.673092	0.140386	0.519425	0.842905	-0.040315	0.853629	-0.519319	-0.989276	0.038923	0.140778
263	679057691													0.010294	0.679929	-0.735754	0.144136	0.512417	0.846554	-0.040251	0.857815	-0.512380	-0.988739	0.039778	0.144267
264	679074358													-0.177854	0.564924	-0.851091	0.146688	0.505181	0.850456	-0.039863	0.862076	-0.505208	-0.988379	0.040206	0.146594
265	679091025													-0.365042	0.378664	-0.886635	0.148683	0.497737	0.854489	-0.038406	0.866348	-0.497962	-0.988139	0.041221	0.147928
266	679107692													-0.421835	0.308307	-0.973506	0.150525	0.490179	0.858526	-0.035638	0.870546	-0.490794	-0.987964	0.043280	0.148508
267	679124359													-0.318179	0.444534	-0.752025	0.152951	0.482353	0.862521	-0.031538	0.874728	-0.483587	-0.987730	0.046763	0.149003
268	679141026													-0.160708	0.666674	-0.324000	0.155947	0.474597	0.866279	-0.026465	0.878701	-0.476638	-0.987411	0.051404	0.149591
269	679157693													0.045012	0.872464	0.251140	0.159447	0.466837	0.869851	-0.021034	0.882530	-0.469786	-0.986982	0.056609	0.150536
270	679174360													0.334257	0.863566	0.412326	0.163305	0.459021	0.873288	-0.016110	0.886293	-0.462844	-0.986444	0.061516	0.152130
271	679191027													0.384567	0.757724	0.203717	0.166726	0.451846	0.876377	-0.012690	0.889728	-0.456315	-0.985922	0.064958	0.154075
272	679207694													0.121141	0.530766	-0.025854	0.168900	0.445855	0.879025	-0.011117	0.892643	-0.450626	-0.985570	0.066339	0.155724
273	679224361													-0.442004	0.491366	-0.168464	0.169093	0.440768	0.881550	-0.010722	0.895200	-0.445536	-0.985542	0.065885	0.156098
274	679241028													-0.684035	0.729322	-0.268147	0.167787	0.436398	0.883971	-0.010778	0.897441	-0.441002	-0.985764	0.064467	0.155282
275	679257695													-0.621533	1.085840	-0.125153	0.164942	0.433124	0.886114	-0.011117	0.899179	-0.437440	-0.986241	0.062301	0.153128
276	679274362													-0.323645	1.629299	0.550254	0.160378	0.430356	0.888297	-0.011512	0.900701	-0.434287	-0.986989	0.059424	0.149407
277	679291029													0.327435	1.758323	1.480974	0.153688	0.427489	0.890861	-0.012304	0.902330	-0.430870	-0.988043	0.055258	0.143937
278	679307696													-0.161125	1.163941	2.785550	0.143689	0.425210	0.893616	-0.014867	0.903812	-0.427671	-0.989511	0.048166	0.136190
279	679324363													-1.196350	0.195109	3.762259	0.133317	0.423862	0.895861	-0.020056	0.904899	-0.425154	-0.990870	0.038713	0.129139
280	679341030													-0.950446	-0.699019	4.308321	0.128413	0.426547	0.895303	-0.027217	0.903953	-0.426764	-0.991347	0.030435	0.127689
281	679357697													-0.061405	-1.079210	3.866060	0.128339	0.431941	0.892724	-0.034725	0.901573	-0.431231	-0.991122	0.024344	0.130706
282	679374364													0.536412	-0.968637	1.841761	0.131306	0.439503	0.888592	-0.040668	0.897987	-0.438140	-0.990507	0.021393	0.135785
283	679391031													1.095943	-0.646779	-0.217358	0.135257	0.446741	0.884380	-0.042510	0.894377	-0.445289	-0.989898	0.022633	0.139962
284	679407698													1.887362	-0.098276	-1.242163	0.135449	0.452934	0.881195	-0.040054	0.891167	-0.451903	-0.989974	0.025914	0.138849
285	679424365													2.486886	-0.071065	-1.728404	0.132368	0.456393	0.879877	-0.035898	0.889313	-0.455887	-0.990550	0.028759	0.134100
286	679441032													2.976600	-0.489969	-2.220275	0.127746	0.456382	0.880566	-0.032576	0.889292	-0.456179	-0.991272	0.029589	0.128470
287	679457699													3.280396	-0.853886	-2.292192	0.123166	0.453084	0.882918	-0.031725	0.891035	-0.452824	-0.991879	0.027762	0.124120
288	679474366													3.302834	-0.930952	-1.891033	0.118478	0.447590	0.886356	-0.034387	0.893957	-0.446832	-0.992361	0.022460	0.121305
289	679491033													3.129507	-1.117441	-0.628638	0.111690	0.442131	0.889969	-0.042037	0.896873	-0.440285	-0.992854	0.011764	0.118758
290	679507700													2.869762	-1.595875	1.207713	0.103454	0.437604	0.893197	-0.054615	0.899160	-0.434200	-0.993134	-0.003863	0.116922
291	679524367													2.317417	-1.650381	2.106622	0.098335	0.433897	0.895580	-0.069233	0.900744	-0.428797	-0.992742	-0.019838	0.118615
292	679541034													1.792001	-1.377472	0.612303	0.095118	0.432228	0.896734	-0.080502	0.901208	-0.425845	-0.992206	-0.031683	0.120516
293	679557701													1.410815	-0.938650	-0.301949	0.089728	0.432615	0.897103	-0.085810	0.900745	-0.425788	-0.992263	-0.038775	0.117945
294	679574368													0.911932	-0.991311	-0.202956	0.085179	0.433440	0.897148	-0.085084	0.900295	-0.426883	-0.992726	-0.039972	0.113565
295	679591035													0.660621	-1.359133	0.111929	0.082588	0.433369	0.897425	-0.080326	0.900466	-0.427445	-0.993341	-0.036785	0.109179
296	679607702													0.602652	-1.874492	0.276868	0.081704	0.432803	0.897779	-0.073309	0.900960	-0.427665	-0.993957	-0.030873	0.105340
297	679624369													0.477519	-2.069272	0.287574	0.082210	0.432655	0.897804	-0.065677	0.901247	-0.428300	-0.994449	-0.023755	0.102507
298	679641036													0.513308	-1.822031	0.026618	0.083268	0.432980	0.897549	-0.058696	0.901244	-0.429317	-0.994797	-0.016934	0.100459
299	679657703													0.578392	-1.471410	-0.102291	0.085131	0.433593	0.897078	-0.052654	0.901047	-0.430514	-0.994978	-0.010585	0.099537
300	679674370													0.584251	-1.140602	-0.188654	0.087654	0.434977	0.896165	-0.047520	0.900430	-0.432398	-0.995017	-0.004684	0.099596
301	679691037													0.601563	-0.943602	-0.435559	0.089865	0.436903	0.895008	-0.042850	0.899508	-0.434797	-0.995032	0.000722	0.099555
302	679707704													0.608894	-0.888142	-0.745017	0.091725	0.438957	0.893814	-0.038198	0.898488	-0.437332	-0.995052	0.005973	0.099181
303	679724371													0.576611	-0.911984	-0.912113	0.093817	0.440467	0.892853	-0.033197	0.897694	-0.439367	-0.995036	0.011580	0.098841
304	679741038													0.316932	-0.816277	-1.052957	0.095407	0.441794	0.892029	-0.028299	0.896958	-0.441209	-0.995036	0.016851	0.098078
305	679757705													0.163819	-0.578725	-1.337143	0.095925	0.444204	0.890775	-0.023844	0.895671	-0.444078	-0.995103	0.021358	0.096509
306	679774372													0.173474	-0.305058	-1.431830	0.095919	0.448034	0.888856	-0.020341	0.893669	-0.448265	-0.995181	0.024916	0.094833
307	679791039													0.216176	0.074553	-1.236141	0.096381	0.452732	0.886422	-0.018420	0.891227	-0.453184	-0.995174	0.027351	0.094237
308	679807706													0.174591	0.336890	-0.783230	0.097488	0.457743	0.883724	-0.018451	0.888632	-0.458250	-0.995066	0.028369	0.095076
309	679824373													0.078269	0.375034	-0.441246	0.099593	0.462783	0.880859	-0.020326	0.886022	-0.463197	-0.994821	0.028227	0.097648
310	679841040													-0.138883	0.199906	-0.335966	0.102524	0.467457	0.878051	-0.023663	0.883598	-0.467648	-0.994449	0.027167	0.101651
311	679857707													-0.268904	0.116863	-0.235825	0.106090	0.471369	0.875532	-0.028231	0.881574	-0.471201	-0.993956	0.025273	0.106834
312	679874374													-0.234817	-0.210489	-0.399873	0.110372	0.474568	0.873272	-0.034103	0.879931	-0.473876	-0.993305	0.022522	0.113304
313	679891041													-0.280186	-0.534196	-0.680458	0.114942	0.477578	0.871038	-0.041259	0.878388	-0.476163	-0.992515	0.018794	0.120668
314	679907708													-0.284215	-0.758239	-0.740643	0.119735	0.480341	0.868871	-0.049317	0.876964	-0.478019	-0.991580	0.014385	0.128693
315	679924375													-0.265538	-0.721848	-0.727535	0.124333	0.483158	0.866660	-0.057361	0.875477	-0.479844	-0.990581	0.009948	0.136565
316	679941042													-0.266849	-0.495541	-0.392371	0.127614	0.486836	0.864121	-0.064321	0.873473	-0.482606	-0.989736	0.006006	0.142782
317	679957709													-0.528492	-0.165542	-0.067223	0.129683	0.491958	0.860906	-0.069468	0.870612	-0.487040	-0.989119	0.003355	0.147079
318	679974376													-0.822811	-0.156363	0.009502	0.130945	0.498215	0.857108	-0.072271	0.867049	-0.492953	-0.988752	0.002606	0.149543
319	679991043													-1.295600	-0.414110	0.007196	0.130996	0.504456	0.853443	-0.072774	0.863431	-0.499190	-0.988708	0.003283	0.149817
320	680007710													-1.577174	-0.569275	0.043185	0.129935	0.509329	0.850706	-0.071493	0.860559	-0.504309	-0.988942	0.004708	0.148230
321	680024377													-1.412000	-0.805404	0.212707	0.128325	0.512636	0.848962	-0.069049	0.858581	-0.508007	-0.989326	0.006570	0.145574
322	680041044													-0.574496	-0.930626	0.781806	0.125789	0.515498	0.847608	-0.066405	0.856853	-0.511266	-0.989832	0.008027	0.142014
323	680057711													-0.221724	-0.674861	2.234984	0.121718	0.518295	0.846495	-0.063404	0.855155	-0.514481	-0.990538	0.008950	0.136950
324	680074378													-0.361098	0.636948	3.609781	0.117679	0.521597	0.845037	-0.058008	0.853107	-0.518500	-0.991356	0.011998	0.130650
325	680091045													0.525249	1.458122	3.691496	0.115975	0.521849	0.845117	-0.049895	0.852845	-0.519774	-0.991998	0.018114	0.124946
326	680107712													1.253103	1.810026	2.795151	0.116413	0.518090	0.847367	-0.040986	0.854947	-0.517094	-0.992355	0.025466	0.120762
327	680124379													1.545935	0.923536	1.266567	0.117819	0.510777	0.851602	-0.033506	0.859131	-0.510657	-0.992470	0.031632	0.118336
328	680141046													1.204762	-0.189138	0.282799	0.116923	0.501316	0.857328	-0.029046	0.864606	-0.501610	-0.992716	0.033747	0.115654
329	680157713													0.708273	-1.124943	-0.507067	0.113256	0.492412	0.862962	-0.027925	0.869785	-0.492640	-0.993173	0.031696	0.112259
330	680174380													0.498297	-1.723763	-0.569174	0.109259	0.486845	0.866628	-0.028864	0.873034	-0.486804	-0.993594	0.028174	0.109439
331	680191047													0.699328	-2.050058	-0.437875	0.106778	0.485175	0.867873	-0.030335	0.874047	-0.484894	-0.993820	0.025448	0.108047
332	680207714													1.396834	-2.127264	-0.768367	0.106358	0.486680	0.867082	-0.031396	0.873237	-0.486284	-0.993832	0.024498	0.108156
333	680224381													2.179060	-1.878833	-1.051737	0.107055	0.490654	0.864753	-0.030892	0.870973	-0.490359	-0.993773	0.025782	0.108400
334	680241048													2.733646	-1.266566	-1.077462	0.108293	0.496194	0.861431	-0.028084	0.867709	-0.496279	-0.993722	0.029551	0.107902
335	680257715													2.974261	-0.282742	-0.817479	0.107901	0.502626	0.857744	-0.023023	0.863813	-0.503286	-0.993895	0.034557	0.104778
336	680274382													2.884644	0.589558	-0.345842	0.105952	0.508961	0.854244	-0.016595	0.859865	-0.510251	-0.994233	0.039886	0.099551
337	680291049													2.674964	0.870436	0.184974	0.104115	0.513276	0.851885	-0.010078	0.857040	-0.515151	-0.994514	0.045050	0.094403
338	680307716													2.217567	0.723730	0.404067	0.101991	0.514195	0.851587	-0.004782	0.856295	-0.516465	-0.994774	0.048602	0.089793
339	680324383													1.678881	0.519162	0.224472	0.099722	0.513057	0.852542	-0.001957	0.856913	-0.515458	-0.995013	0.049734	0.086457
340	680341050													1.267382	0.445194	-0.086358	0.097885	0.510664	0.854190	-0.001989	0.858411	-0.512959	-0.995196	0.048512	0.085041
341	680357717													1.194647	0.608669	-0.099606	0.097679	0.509286	0.855036	-0.004720	0.859372	-0.511330	-0.995207	0.045910	0.086347
342	680374384													1.223489	0.675824	-0.055735	0.099025	0.509008	0.855047	-0.009104	0.859698	-0.510722	-0.995043	0.042790	0.089766
343	680391051													1.166808	0.705408	-0.085351	0.100224	0.509118	0.854841	-0.014181	0.859811	-0.510415	-0.994864	0.039034	0.093394
344	680407718													1.186166	0.631923	-0.145548	0.101795	0.509608	0.854364	-0.019212	0.859672	-0.510485	-0.994620	0.035551	0.097301
345	680424385													1.261341	0.591017	-0.130898	0.104097	0.510351	0.853643	-0.023559	0.859330	-0.510878	-0.994288	0.033070	0.101477
346	680441052													1.249704	0.608975	-0.118976	0.106487	0.511306	0.852776	-0.026808	0.858817	-0.511581	-0.993953	0.031615	0.105160
347	680457719													1.050476	0.633131	0.061885	0.108923	0.512108	0.851987	-0.029019	0.858359	-0.512228	-0.993627	0.031070	0.108356
348	680474386													0.747144	0.503150	-0.024367	0.112924	0.512219	0.851399	-0.030498	0.858263	-0.512303	-0.993135	0.031885	0.112540
349	680491053													0.535519	0.505985	-0.496683	0.119014	0.511292	0.851126	-0.031319	0.858726	-0.511478	-0.992399	0.034217	0.118213
350	680507720													0.449358	0.592990	-0.853386	0.125633	0.509418	0.851299	-0.031597	0.859717	-0.509792	-0.991573	0.037148	0.124105
351	680524387													0.419951	0.743560	-0.981867	0.132627	0.506694	0.851864	-0.031646	0.861183	-0.507310	-0.990661	0.040325	0.130251
352	680541054													0.379765	0.885126	-1.148194	0.140339	0.503365	0.852601	-0.031761	0.862969	-0.504258	-0.989594	0.043687	0.137095
353	680557721													0.279553	0.877724	-1.218602	0.147994	0.499490	0.853585	-0.032151	0.865063	-0.500632	-0.988466	0.046647	0.144083
354	680574388													0.148604	0.774822	-1.140531	0.154483	0.495466	0.854780	-0.032427	0.867242	-0.496829	-0.987463	0.049033	0.150041
355	680591055													-0.112281	0.376513	-1.072374	0.160444	0.491295	0.856088	-0.032380	0.869477	-0.492910	-0.986514	0.051364	0.155411
356	680607722													-0.391868	0.028981	-1.223990	0.165505	0.487107	0.857517	-0.031951	0.871700	-0.488997	-0.985691	0.053533	0.159834
357	680624389													-0.709050	-0.102299	-1.404386	0.168865	0.483166	0.859090	-0.030830	0.873770	-0.485362	-0.985157	0.055475	0.162445
358	680641056													-0.828924	-0.041468	-1.404019	0.170881	0.479697	0.860634	-0.028546	0.875525	-0.482329	-0.984878	0.057853	0.163304
359	680657723													-0.629000	0.388728	-1.164329	0.172432	0.476557	0.862068	-0.024960	0.877009	-0.479824	-0.984705	0.061220	0.163119
360	680674390													-0.311167	0.855607	-0.652929	0.173977	0.473632	0.863368	-0.020354	0.878281	-0.477712	-0.984539	0.065538	0.162441
361	680691057													0.012916	1.163248	-0.054637	0.175902	0.470559	0.864658	-0.015378	0.879559	-0.475540	-0.984288	0.070352	0.161953
362	680707724													0.251921	1.063534	0.410754	0.177555	0.467088	0.866200	-0.010848	0.881061	-0.472878	-0.984051	0.074565	0.161504
363	680724391													0.122683	0.753166	0.671074	0.178637	0.464246	0.867505	-0.007856	0.882331	-0.470563	-0.983884	0.077244	0.161264
364	680741058													-0.570808	0.770593	0.358141	0.178082	0.462669	0.868461	-0.006461	0.883099	-0.469143	-0.983994	0.077935	0.160254
365	680757725													-0.977150	1.139569	-0.126628	0.178081	0.461662	0.868997	-0.005913	0.883599	-0.468208	-0.983998	0.078241	0.160082
366	680774392													-0.669673	1.523673	-0.461213	0.179422	0.460636	0.869266	-0.006222	0.884118	-0.467222	-0.983753	0.078421	0.161496
367	680791059													0.342404	1.848863	-0.071916	0.181181	0.460551	0.868946	-0.007653	0.884202	-0.467041	-0.983420	0.077969	0.163725
368	680807726													1.587635	1.869549	1.125356	0.179506	0.461065	0.869020	-0.010184	0.884193	-0.467011	-0.983704	0.074981	0.163414
369	680824393													0.459451	1.884310	3.086842	0.169837	0.461268	0.870855	-0.014785	0.884786	-0.465763	-0.985361	0.066228	0.157089
370	680841060													-1.289771	1.236947	5.387805	0.157600	0.460684	0.873460	-0.023243	0.885999	-0.463104	-0.987230	0.052684	0.150341
371	680857727													-0.797702	0.103245	5.402883	0.153704	0.462060	0.873428	-0.033992	0.885881	-0.462666	-0.987532	0.041424	0.151870
372	680874394													-0.516834	-0.637889	4.611777	0.153615	0.465403	0.871667	-0.044163	0.884489	-0.464466	-0.987143	0.032854	0.156424
373	680891061													-0.236539	-0.364015	1.613593	0.157662	0.469465	0.868761	-0.050464	0.882445	-0.467702	-0.986203	0.029897	0.162819
374	680907728													0.838496	-0.623266	-0.558970	0.161743	0.473690	0.865712	-0.051661	0.880124	-0.471924	-0.985480	0.031607	0.166825
375	680924395													1.655854	-0.499668	-1.318925	0.162026	0.476744	0.863980	-0.048416	0.878336	-0.475586	-0.985598	0.035227	0.165395
376	680941062													1.928147	-0.500370	-1.626387	0.159637	0.477370	0.864080	-0.043874	0.877871	-0.476884	-0.986200	0.038218	0.161085
377	680957729													2.391088	-0.769688	-1.837993	0.156259	0.474898	0.866057	-0.040598	0.879175	-0.474767	-0.986881	0.039027	0.156659
378	680974396													2.586130	-0.958864	-1.814034	0.153052	0.469105	0.869779	-0.040577	0.882390	-0.468766	-0.987385	0.036453	0.154087
379	680991063													2.535422	-1.105868	-1.417936	0.149085	0.461161	0.874702	-0.045019	0.886836	-0.459886	-0.987799	0.029184	0.152975
380	681007730													2.511688	-1.484040	-0.411922	0.142857	0.451817	0.880598	-0.054539	0.891966	-0.448801	-0.988239	0.016087	0.152066
381	681024397													2.216378	-1.577705	1.556339	0.136203	0.440845	0.887189	-0.068190	0.897583	-0.435541	-0.988331	-0.001175	0.152315
382	681041064													1.555648	-1.165921	2.335754	0.131545	0.430316	0.893042	-0.080658	0.902530	-0.423007	-0.988023	-0.016387	0.153431
383	681057731													1.183295	-0.570355	1.518293	0.125556	0.423335	0.897231	-0.087598	0.905586	-0.415018	-0.988212	-0.026488	0.150785
384	681074398													1.109481	-0.179034	0.512820	0.120204	0.419036	0.899978	-0.087897	0.907483	-0.410790	-0.988850	-0.029726	0.145915
385	681091065													0.496561	-0.518793	0.142591	0.117824	0.414160	0.902546	-0.082799	0.909809	-0.406684	-0.989577	-0.026813	0.141489
386	681107732													0.092100	-1.268677	-0.288328	0.118222	0.407729	0.905417	-0.074175	0.912890	-0.401409	-0.990213	-0.019704	0.138167
387	681124399													0.182570	-1.744630	-0.769645	0.120451	0.400112	0.908516	-0.063994	0.916406	-0.395102	-0.990654	-0.010549	0.135987
388	681141066													0.238778	-1.759831	-0.820929	0.123026	0.391676	0.911841	-0.054618	0.920101	-0.387855	-0.990899	-0.002086	0.134589
389	681157733													0.203927	-1.411238	-0.798518	0.124889	0.382763	0.915366	-0.047613	0.923839	-0.379810	-0.991028	0.003851	0.133602
390	681174400													0.346498	-1.236682	-0.819569	0.127408	0.373888	0.918681	-0.042630	0.927438	-0.371539	-0.990934	0.008174	0.134101
391	681191067													0.327962	-1.120467	-0.862268	0.130644	0.365177	0.921725	-0.038484	0.930861	-0.363342	-0.990682	0.011997	0.135664
392	681207734													0.439336	-0.713678	-1.050571	0.133242	0.355955	0.924955	-0.034211	0.934373	-0.354651	-0.990493	0.015610	0.136676
393	681224401													0.256853	-0.495704	-1.458477	0.134167	0.346656	0.928347	-0.029912	0.937807	-0.345866	-0.990507	0.018635	0.136192
394	681241068													0.085773	-0.418810	-1.533841	0.134607	0.338603	0.931251	-0.025980	0.940687	-0.338278	-0.990558	0.021341	0.135420
395	681257735													-0.048080	-0.446420	-1.382203	0.136535	0.332619	0.933125	-0.023365	0.942766	-0.332637	-0.990360	0.023614	0.136492
396	681274402													-0.402633	-0.408786	-1.403247	0.139615	0.328484	0.934134	-0.022253	0.944176	-0.328689	-0.989956	0.025103	0.139131
397	681291069													-0.744704	-0.621363	-1.649057	0.142773	0.325960	0.934541	-0.022204	0.945031	-0.326227	-0.989506	0.025826	0.142163
398	681307736													-0.844139	-0.562330	-1.660760	0.144901	0.324479	0.934728	-0.022970	0.945547	-0.324674	-0.989180	0.025575	0.144464
399	681324403													-0.836329	-0.578318	-1.451536	0.147101	0.323427	0.934749	-0.024904	0.945941	-0.323380	-0.988808	0.024291	0.147203
400	681341070													-0.759476	-0.792523	-1.056951	0.150146	0.322288	0.934659	-0.027946	0.946381	-0.321841	-0.988269	0.022203	0.151102
401	681357737													-0.805710	-0.907050	-0.707531	0.154457	0.322617	0.933842	-0.032269	0.946328	-0.321593	-0.987472	0.019539	0.156578
402	681374404													-0.702929	-0.951121	-0.454048	0.159898	0.323855	0.932497	-0.037567	0.945963	-0.322090	-0.986418	0.016471	0.163424
403	681391071													-0.678924	-0.710620	-0.412403	0.165384	0.325303	0.931035	-0.043646	0.945524	-0.322612	-0.985263	0.012718	0.170573
404	681407738													-0.421978	-0.094071	-0.486805	0.170661	0.326946	0.929506	-0.049735	0.945001	-0.323265	-0.984074	0.008939	0.177536
405	681424405													-0.435561	0.325080	-0.200400	0.176153	0.328621	0.927889	-0.054678	0.944441	-0.324103	-0.982843	0.006357	0.184334
406	681441072													-0.881563	0.677531	0.087787	0.180270	0.329511	0.926782	-0.057619	0.944138	-0.324474	-0.981928	0.005093	0.189186
407	681457739													-1.698166	0.683392	-0.216553	0.181417	0.324673	0.928265	-0.057464	0.945815	-0.319581	-0.981726	0.004636	0.190244
408	681474406													-2.294564	-0.559314	-0.577082	0.178154	0.316596	0.931680	-0.055261	0.948552	-0.311762	-0.982450	0.004056	0.186484
409	681491073													-2.113700	-1.617482	-0.016522	0.170389	0.308982	0.935680	-0.052260	0.951063	-0.304545	-0.983990	0.002993	0.178198
410	681507740													-1.311584	-2.336328	1.692483	0.159971	0.305530	0.938648	-0.049150	0.952180	-0.301558	-0.985897	0.002107	0.167338
411	681524407													-1.446225	-1.900391	4.402802	0.148496	0.306535	0.940205	-0.043778	0.951851	-0.303418	-0.987944	0.003896	0.154765
412	681541074													-1.396240	0.409538	6.104105	0.139084	0.307366	0.941372	-0.033752	0.951531	-0.305696	-0.989705	0.010744	0.142717
413	681557741													0.693020	0.742296	5.077049	0.137230	0.299757	0.944094	-0.020844	0.953774	-0.299801	-0.990320	0.021463	0.137134
414	681574408													1.416376	0.685680	3.007760	0.135673	0.292154	0.946699	-0.009613	0.955877	-0.293608	-0.990707	0.030734	0.132495
415	681591075													1.316948	0.811818	0.638076	0.132947	0.280741	0.950531	-0.001551	0.959102	-0.283055	-0.991122	0.036157	0.127946
416	681607742													2.365101	-0.289783	-0.968588	0.129562	0.268535	0.954517	0.001683	0.962570	-0.271029	-0.991570	0.036722	0.124261
417	681624409													2.736055	-0.576253	-1.348714	0.127974	0.261138	0.956781	0.001107	0.964675	-0.263441	-0.991777	0.034772	0.123164
418	681641076													3.002975	-0.885844	-1.129604	0.126832	0.260668	0.957061	-0.000624	0.964874	-0.262713	-0.991924	0.032723	0.122540
419	681657743													2.742823	-1.173437	-0.294840	0.124715	0.264130	0.956390	-0.000623	0.963936	-0.266133	-0.992192	0.032595	0.120382
420	681674410													2.285500	-1.034469	0.694129	0.120832	0.268325	0.955720	0.002990	0.962672	-0.270655	-0.992668	0.035562	0.115520
421	681691077													1.853987	-0.359088	1.286060	0.116152	0.272002	0.955261	0.009203	0.961435	-0.274879	-0.993189	0.040719	0.109169
422	681707744													1.541978	0.185968	1.867790	0.115355	0.272976	0.955080	0.014984	0.960911	-0.276453	-0.993211	0.046201	0.106756
423	681724411													1.427164	0.617107	1.572643	0.117854	0.271173	0.955288	0.017640	0.961269	-0.275047	-0.992874	0.049266	0.108506
424	681741078													1.057013	0.768540	0.744487	0.120189	0.267598	0.956005	0.017027	0.962289	-0.271497	-0.992605	0.048909	0.111100
425	681757745													0.899456	0.599303	0.258503	0.123766	0.263167	0.956778	0.013452	0.963658	-0.266800	-0.992220	0.045891	0.115728
426	681774412													0.875306	0.349319	-0.086566	0.129938	0.260189	0.956775	0.006834	0.964698	-0.263272	-0.991499	0.040748	0.123573
427	681791079													0.809677	0.318533	-0.707505	0.138351	0.260410	0.955534	-0.001619	0.964871	-0.262720	-0.990382	0.034801	0.133913
428	681807746													0.929879	0.350102	-1.415422	0.147946	0.264227	0.953046	-0.010482	0.964015	-0.265641	-0.988940	0.029311	0.145391
429	681824413													1.048686	0.274462	-1.940345	0.156911	0.270954	0.949717	-0.018654	0.962271	-0.271453	-0.987437	0.024878	0.156046
430	681841080													1.048230	0.435703	-2.215422	0.164473	0.279706	0.945893	-0.025283	0.959833	-0.279432	-0.986057	0.022044	0.164938
431	681857747													0.971324	0.219097	-2.448172	0.170375	0.288447	0.942216	-0.030232	0.957276	-0.287591	-0.984915	0.020513	0.171816
432	681874414													0.879826	0.286679	-2.227373	0.174233	0.296685	0.938947	-0.033814	0.954772	-0.295411	-0.984124	0.019720	0.176385
433	681891081													0.722076	0.288539	-1.641903	0.176533	0.304116	0.936135	-0.035876	0.952428	-0.302644	-0.983641	0.019842	0.179045
434	681907748													0.519200	0.655088	-1.196966	0.178902	0.310332	0.933642	-0.036378	0.950389	-0.308928	-0.983194	0.021304	0.181316
435	681924415													0.343961	1.003546	-1.090719	0.181204	0.314808	0.931698	-0.035900	0.948867	-0.313627	-0.982790	0.023383	0.183240
436	681941082													-0.124083	1.275231	-0.937033	0.182453	0.317594	0.930508	-0.034977	0.947891	-0.316668	-0.982592	0.025231	0.184054
437	681957749													-0.654356	1.229478	-1.088847	0.183844	0.318869	0.929798	-0.033888	0.947414	-0.318210	-0.982371	0.026992	0.184982
438	681974416													-0.891368	1.073122	-1.333708	0.185771	0.318651	0.929489	-0.032564	0.947433	-0.318294	-0.982053	0.028862	0.186382
439	681991083													-1.017680	0.803467	-1.527099	0.188024	0.316976	0.929609	-0.030636	0.947923	-0.317024	-0.981686	0.031128	0.187944
440	682007750													-0.800043	0.776281	-1.585074	0.189838	0.315357	0.929791	-0.027901	0.948363	-0.315959	-0.981419	0.034039	0.188835
441	682024417													-0.549181	0.905774	-1.526398	0.191343	0.314285	0.929846	-0.024377	0.948579	-0.315601	-0.981221	0.037721	0.189165
442	682041084													-0.120105	0.927360	-1.378501	0.193024	0.313799	0.929662	-0.020175	0.948550	-0.315985	-0.980987	0.042237	0.189424
443	682057751													0.216848	0.671433	-0.867916	0.195196	0.313624	0.929268	-0.015323	0.948353	-0.316846	-0.980644	0.047608	0.189921
444	682074418													0.553716	0.386876	0.093048	0.196783	0.313413	0.929004	-0.009819	0.948113	-0.317781	-0.980398	0.053412	0.189650
445	682091085													-0.078808	0.741439	1.026525	0.197656	0.312953	0.928974	-0.004016	0.947921	-0.318481	-0.980263	0.059219	0.188619
446	682107752													-0.727037	1.703507	1.171187	0.200634	0.311342	0.928877	0.001706	0.948044	-0.318135	-0.979665	0.065413	0.189679
447	682124419													-0.763284	2.420072	0.770970	0.205039	0.309492	0.928533	0.005825	0.948286	-0.317363	-0.978736	0.070481	0.192633
448	682141086													-0.392847	2.393488	0.633761	0.206767	0.308035	0.928634	0.007559	0.948614	-0.316345	-0.978361	0.072430	0.193813
449	682157753													0.656953	2.010904	1.481381	0.201529	0.308808	0.929529	0.006560	0.948553	-0.316551	-0.979461	0.069892	0.189135
450	682174420													-0.450868	1.615527	3.501622	0.185854	0.311658	0.931841	0.001461	0.948275	-0.317446	-0.982576	0.060360	0.175786
451	682191087													-2.555770	0.333146	5.333463	0.168987	0.319001	0.932567	-0.009282	0.946648	-0.322135	-0.985575	0.045781	0.162932
452	682207754													-1.643656	-0.451561	5.615844	0.161546	0.329611	0.930193	-0.020741	0.943499	-0.330724	-0.986647	0.034134	0.159255
453	682224421													0.102941	-1.227976	4.757788	0.161642	0.340816	0.926130	-0.029962	0.939733	-0.340593	-0.986395	0.027306	0.162112
454	682241088													0.704348	-1.186956	1.564061	0.164182	0.351783	0.921571	-0.035082	0.935740	-0.350941	-0.985806	0.025288	0.165973
455	682257755													1.526286	-1.033550	-0.937738	0.167233	0.363112	0.916615	-0.035739	0.931329	-0.362421	-0.985269	0.027850	0.168726
456	682274422													2.697838	-0.816392	-2.274429	0.167033	0.372859	0.912730	-0.033013	0.927331	-0.372782	-0.985398	0.032135	0.167205
457	682291089													3.352224	-0.971351	-2.477894	0.163049	0.380445	0.910317	-0.030111	0.924153	-0.380834	-0.986158	0.034684	0.162138
458	682307756													3.212323	-0.764818	-2.200638	0.157966	0.386346	0.908727	-0.029294	0.921710	-0.386773	-0.987010	0.034476	0.156916
459	682324423													2.947017	-0.453182	-1.218867	0.151794	0.389844	0.908284	-0.031443	0.920372	-0.389778	-0.987912	0.030607	0.151965
460	682341090													3.005371	-0.779335	0.158515	0.142759	0.390596	0.909425	-0.038008	0.920322	-0.389310	-0.989027	0.021012	0.146230
461	682357757													2.832151	-1.136589	2.337474	0.133456	0.389097	0.911479	-0.048056	0.921164	-0.386195	-0.989889	0.007738	0.141633
462	682374424													1.922984	-0.669061	3.289556	0.127502	0.387675	0.912936	-0.057572	0.921789	-0.383394	-0.990166	-0.003676	0.139850
463	682391091													1.198152	-0.141040	1.909008	0.124685	0.388958	0.912779	-0.062377	0.921211	-0.384031	-0.990234	-0.009053	0.139123
464	682407758													1.047180	0.042846	0.750814	0.125418	0.391259	0.911695	-0.061606	0.920249	-0.386455	-0.990189	-0.007697	0.139519
465	682424425													0.692303	-0.102730	0.006536	0.128979	0.392639	0.910604	-0.056869	0.919691	-0.388502	-0.990015	-0.001677	0.140950
466	682441092													0.485498	-0.394209	-0.220467	0.133818	0.392135	0.910123	-0.050112	0.919885	-0.388973	-0.989738	0.006443	0.142748
467	682457759													0.486175	-0.687486	-0.467454	0.139219	0.389759	0.910333	-0.043149	0.920800	-0.387641	-0.989321	0.014687	0.145011
468	682474426													0.437431	-0.771779	-0.809905	0.143499	0.385563	0.911454	-0.037402	0.922441	-0.384322	-0.988944	0.021060	0.146790
469	682491093													0.404489	-0.952222	-1.141978	0.146494	0.380294	0.913190	-0.033450	0.924526	-0.379649	-0.988646	0.025070	0.148158
470	682507760													0.321219	-1.031451	-1.248278	0.149505	0.374931	0.914918	-0.030547	0.926627	-0.374738	-0.988289	0.028077	0.149989
471	682524427													0.240808	-0.914337	-1.015513	0.152557	0.370140	0.916364	-0.028256	0.928472	-0.370327	-0.987891	0.030603	0.152103
472	682541094													0.338884	-0.941926	-1.111641	0.156245	0.366420	0.917237	-0.026605	0.929867	-0.366933	-0.987360	0.032928	0.155036
473	682557761													0.211050	-1.082607	-1.368799	0.159345	0.364039	0.917652	-0.025496	0.930736	-0.364802	-0.986894	0.034733	0.157590
474	682574428													-0.030393	-1.107504	-1.644424	0.161754	0.363042	0.917625	-0.024442	0.931059	-0.364048	-0.986528	0.036457	0.159476
475	682591095													-0.044348	-0.895294	-1.803982	0.164495	0.362707	0.917271	-0.023252	0.931106	-0.364008	-0.986104	0.038550	0.161596
476	682607762													-0.261280	-0.828141	-1.646670	0.167317	0.363253	0.916544	-0.022592	0.930817	-0.364786	-0.985644	0.040328	0.163948
477	682624429													-0.388801	-0.526078	-1.912362	0.170415	0.365415	0.915113	-0.023107	0.929924	-0.367026	-0.985101	0.041401	0.166917
478	682641096													-0.551907	-0.246945	-1.928248	0.172289	0.369045	0.913303	-0.024685	0.928494	-0.370527	-0.984737	0.041293	0.169079
479	682657763													-0.662122	-0.198036	-1.782605	0.173086	0.373550	0.911319	-0.027335	0.926750	-0.374684	-0.984527	0.039941	0.170619
480	682674430													-0.901482	-0.255027	-1.449732	0.172736	0.378476	0.909351	-0.031107	0.924864	-0.379024	-0.984477	0.037184	0.171531
481	682691097													-1.100480	-0.344913	-0.948835	0.172389	0.383894	0.907142	-0.036272	0.922779	-0.383619	-0.984361	0.033227	0.173001
482	682707764													-0.869427	-0.585661	-0.720088	0.174424	0.389840	0.904213	-0.042487	0.920414	-0.388629	-0.983754	0.029369	0.177105
483	682724431													-0.530783	-0.588290	-0.632087	0.178711	0.395847	0.900759	-0.049018	0.917943	-0.393673	-0.982680	0.026201	0.183450
484	682741098													-0.303352	-0.159213	-0.338036	0.183230	0.401332	0.897418	-0.054879	0.915626	-0.398269	-0.981537	0.023726	0.189795
485	682757765													-0.397132	0.243102	0.042101	0.186426	0.405784	0.894754	-0.059477	0.913711	-0.401989	-0.980667	0.021724	0.194474
486	682774432													-0.827461	0.633453	0.002654	0.187463	0.408222	0.893428	-0.062623	0.912669	-0.403873	-0.980273	0.019762	0.196655
487	682791099													-1.511001	0.925769	-0.108773	0.186532	0.408706	0.893401	-0.064507	0.912494	-0.403972	-0.980329	0.017723	0.196574
488	682807766													-1.783479	0.356613	0.103623	0.185541	0.408624	0.893645	-0.065437	0.912555	-0.403685	-0.980455	0.016422	0.196055
489	682824433													-1.178320	-0.752678	0.650775	0.183997	0.406753	0.894817	-0.065907	0.913416	-0.401656	-0.980715	0.014929	0.194874
490	682841100													-0.200042	-1.972771	1.881850	0.178794	0.403477	0.897351	-0.065995	0.914911	-0.398224	-0.981671	0.011979	0.190208
491	682857767													-1.499181	-0.841133	4.408691	0.167960	0.403413	0.899470	-0.061758	0.914946	-0.398822	-0.983857	0.011437	0.178589
492	682874434													-1.505759	2.661083	6.241264	0.159988	0.400950	0.902021	-0.050684	0.915923	-0.398140	-0.985817	0.017980	0.166858
493	682891101													1.252244	2.044108	5.418271	0.157182	0.391849	0.906503	-0.036679	0.919596	-0.391149	-0.986888	0.028232	0.158917
494	682907768													1.759208	1.744592	2.783914	0.155707	0.380923	0.911402	-0.023601	0.923826	-0.382083	-0.987521	0.037982	0.152836
495	682924435													2.227903	-0.692239	0.565423	0.153816	0.366681	0.917543	-0.014396	0.929327	-0.368977	-0.987995	0.043545	0.148224
496	682941102													1.958344	-2.088930	-0.773737	0.150408	0.355946	0.922323	-0.010622	0.933464	-0.358513	-0.988567	0.044126	0.144181
497	682957769													2.038374	-2.138272	-1.451295	0.150570	0.352088	0.923776	-0.010910	0.934964	-0.354574	-0.988539	0.043309	0.144619
498	682974436													2.277430	-2.190079	-1.355440	0.152465	0.355642	0.922103	-0.012629	0.933635	-0.358002	-0.988228	0.042937	0.146838
499	682991103													2.155101	-1.719838	-1.117655	0.152369	0.363769	0.918943	-0.012987	0.930456	-0.366173	-0.988238	0.043860	0.146497
500	683007770													2.131816	-1.265177	-0.347232	0.148709	0.373511	0.915628	-0.010770	0.926480	-0.376189	-0.988822	0.046081	0.141799
501	683024437													1.962142	-0.583655	0.848593	0.143680	0.382912	0.912543	-0.006518	0.922457	-0.386046	-0.989603	0.049519	0.135034
502	683041104													1.566496	0.332586	1.670833	0.140099	0.390271	0.909979	-0.001720	0.919137	-0.393934	-0.990136	0.053624	0.129441
503	683057771													1.211101	0.936361	1.226799	0.137354	0.395124	0.908301	0.001998	0.916880	-0.399158	-0.990520	0.056640	0.125148
504	683074438													1.149012	0.857824	0.483532	0.135835	0.397433	0.907522	0.003543	0.915811	-0.401593	-0.990725	0.057766	0.122992
505	683091105													1.117460	0.525335	-0.017621	0.136685	0.398196	0.907059	0.002417	0.915516	-0.402273	-0.990612	0.057177	0.124175
506	683107772													1.089844	0.444562	-0.605255	0.139199	0.399391	0.906152	-0.001776	0.915159	-0.403088	-0.990263	0.054500	0.128099
507	683124439													0.988936	0.529430	-1.060557	0.142811	0.402451	0.904233	-0.008351	0.914055	-0.405504	-0.989715	0.050359	0.133898
508	683141106													1.012244	0.654982	-1.232574	0.146704	0.407336	0.901418	-0.015845	0.912129	-0.409597	-0.989053	0.045806	0.140268
509	683157773													1.311206	0.891660	-1.232017	0.150629	0.413715	0.897859	-0.022818	0.909435	-0.415220	-0.988327	0.042057	0.146427
510	683174440													1.439454	0.682786	-1.207869	0.154443	0.421116	0.893761	-0.028598	0.906141	-0.422007	-0.987588	0.039616	0.151990
511	683191107													1.060385	0.412802	-1.239342	0.156919	0.428663	0.889733	-0.033092	0.902670	-0.429060	-0.987057	0.037885	0.155831
512	683207774													0.643976	0.421773	-1.381359	0.157378	0.436123	0.886018	-0.036046	0.899138	-0.436179	-0.986880	0.036708	0.157225
513	683224441													0.388875	0.305286	-1.260352	0.157413	0.442432	0.882879	-0.036706	0.896029	-0.442477	-0.986850	0.037244	0.157287
514	683241108													0.310720	0.357099	-1.065886	0.159074	0.447378	0.880084	-0.035352	0.893445	-0.447780	-0.986634	0.040117	0.157939
515	683257775													0.303960	0.648991	-0.953470	0.163020	0.450174	0.877934	-0.032675	0.891813	-0.451224	-0.986082	0.044872	0.160093
516	683274442													0.339611	0.881619	-1.128346	0.167576	0.451908	0.876183	-0.029919	0.890673	-0.453659	-0.985405	0.049808	0.162776
517	683291109													0.172816	1.222861	-1.314668	0.171926	0.452546	0.875011	-0.027732	0.890108	-0.454905	-0.984719	0.053944	0.165583
518	683307776													-0.012387	1.340521	-1.426283	0.176352	0.451622	0.874607	-0.026060	0.890364	-0.454503	-0.983982	0.057360	0.168786
519	683324443													-0.156824	1.317325	-1.439217	0.180407	0.448937	0.875162	-0.024294	0.891524	-0.452322	-0.983292	0.060341	0.171744
520	683341110													-0.160275	1.288908	-1.620665	0.183675	0.444673	0.876658	-0.021903	0.893461	-0.448607	-0.982743	0.063197	0.173846
521	683357777													0.040825	1.400071	-1.697905	0.185156	0.439570	0.878917	-0.018797	0.895803	-0.444055	-0.982529	0.065699	0.174126
522	683374444													0.263043	1.212973	-1.571398	0.184785	0.434652	0.881438	-0.014799	0.898012	-0.439723	-0.982668	0.068210	0.172371
523	683391111													0.071183	0.865235	-0.856683	0.182765	0.430585	0.883852	-0.010433	0.899793	-0.436193	-0.983101	0.070499	0.168943
524	683407778													-0.240950	0.366111	-0.280809	0.179873	0.428441	0.885485	-0.006695	0.900680	-0.434432	-0.983667	0.072214	0.164876
525	683424445													-0.985994	0.206431	0.152042	0.175428	0.428389	0.886401	-0.003411	0.900623	-0.434587	-0.984486	0.073215	0.159456
526	683441112													-1.597789	0.721207	0.293665	0.171528	0.429430	0.886661	-0.000068	0.900005	-0.435880	-0.985179	0.074705	0.154405
527	683457779													-1.391883	1.411137	0.292214	0.170595	0.431344	0.885912	0.002647	0.898888	-0.438171	-0.985338	0.077095	0.152204
528	683474446													-0.434447	1.746447	0.567622	0.169019	0.434761	0.884543	0.004657	0.897092	-0.441819	-0.985602	0.078795	0.149601
529	683491113													1.210176	1.473394	1.561132	0.163421	0.439807	0.883099	0.006205	0.894657	-0.446711	-0.986537	0.078482	0.143477
530	683507780													0.582549	1.214446	4.079658	0.149831	0.447180	0.881805	0.004883	0.891528	-0.452940	-0.988700	0.072170	0.131395
531	683524447													-1.788534	0.428000	6.383234	0.133374	0.456066	0.879895	-0.002665	0.887989	-0.459857	-0.991062	0.058988	0.119649
532	683541114													-0.964206	-0.788883	5.950468	0.123427	0.467317	0.875431	-0.013596	0.882890	-0.469382	-0.992260	0.046032	0.115326
533	683557781													0.316858	-1.647572	3.587161	0.121375	0.478315	0.869761	-0.023219	0.877367	-0.479258	-0.992335	0.037975	0.117596
534	683574448													1.720948	-1.171076	0.933528	0.126803	0.489419	0.862780	-0.029164	0.871265	-0.489946	-0.991499	0.036965	0.124753
535	683591115													2.971448	-0.336155	-0.863126	0.129225	0.498393	0.857266	-0.030158	0.866091	-0.498977	-0.991157	0.038627	0.126952
536	683607782													3.472417	0.144590	-1.650105	0.125320	0.503106	0.855090	-0.028475	0.863354	-0.503795	-0.991708	0.038787	0.122521
537	683624449													3.502832	0.439853	-1.264843	0.119540	0.502950	0.856009	-0.028545	0.863576	-0.503410	-0.992419	0.035743	0.117589
538	683641116													3.586777	0.228849	-0.620778	0.115166	0.499026	0.858901	-0.032854	0.866094	-0.498800	-0.992803	0.029226	0.116139
539	683657783													3.512307	-0.662138	0.281983	0.110522	0.492451	0.863294	-0.042204	0.870157	-0.490963	-0.992977	0.017827	0.116955
540	683674450													2.631864	-1.451753	2.105789	0.100631	0.483724	0.869416	-0.054578	0.875220	-0.480636	-0.993426	0.000916	0.114475
541	683691117													1.468964	-1.883665	3.614373	0.093585	0.473928	0.875576	-0.065885	0.880456	-0.469528	-0.993429	-0.013746	0.113622
542	683707784													0.647491	-2.105819	2.128361	0.092963	0.467991	0.878830	-0.072886	0.883483	-0.462758	-0.992998	-0.021035	0.116241
543	683724451													0.644651	-2.299879	0.211115	0.096376	0.466956	0.879013	-0.074161	0.884038	-0.461495	-0.992578	-0.020711	0.119830
544	683741118													0.603691	-2.414795	-0.681290	0.099274	0.468941	0.877633	-0.070973	0.883080	-0.463823	-0.992526	-0.016242	0.120949
545	683757785													0.433973	-2.314061	-1.051622	0.102176	0.472484	0.875396	-0.064508	0.881297	-0.468139	-0.992673	-0.008637	0.120527
546	683774452													0.288692	-2.224904	-1.558645	0.104711	0.475884	0.873253	-0.056227	0.879508	-0.472550	-0.992912	0.000381	0.118851
547	683791119													0.256780	-2.151751	-1.726576	0.106447	0.478588	0.871563	-0.047959	0.877994	-0.476262	-0.993161	0.008897	0.116412
548	683807786													0.386932	-2.126718	-1.686642	0.107964	0.481610	0.869710	-0.040974	0.876236	-0.480138	-0.993310	0.016202	0.114335
549	683824453													0.295201	-1.852347	-1.295582	0.109206	0.485826	0.867206	-0.035965	0.873784	-0.484982	-0.993368	0.021774	0.112895
550	683841120													0.466736	-1.479821	-0.618956	0.111845	0.490879	0.864019	-0.032682	0.870821	-0.490513	-0.993188	0.026623	0.113440
551	683857787													0.680827	-1.221350	-0.254090	0.115623	0.495902	0.860647	-0.030834	0.867832	-0.495900	-0.992814	0.030800	0.115632
552	683874454													0.494104	-1.073860	-0.564719	0.118460	0.501703	0.856891	-0.029965	0.864380	-0.501945	-0.992507	0.033784	0.117428
553	683891121													0.279516	-1.081821	-0.980429	0.120500	0.509191	0.852176	-0.029332	0.859883	-0.509649	-0.992280	0.036417	0.118551
554	683907788													0.235456	-1.256442	-1.121184	0.123239	0.518325	0.846257	-0.029048	0.854276	-0.519007	-0.991952	0.039380	0.120336
555	683924455													0.216560	-1.321516	-1.036123	0.126987	0.528648	0.839289	-0.029375	0.847772	-0.529547	-0.991469	0.042591	0.123186
556	683941122													0.213713	-1.106846	-0.994162	0.131158	0.540047	0.831353	-0.030824	0.840413	-0.541069	-0.990882	0.045339	0.126873
557	683957789													0.275794	-0.925365	-0.750668	0.135031	0.552511	0.822495	-0.033660	0.832176	-0.553489	-0.990269	0.047053	0.130967
558	683974456													0.069610	-0.784093	-0.292569	0.138370	0.565624	0.812972	-0.037873	0.823290	-0.566356	-0.989656	0.047577	0.135340
559	683991123													-0.179496	-0.846928	0.142396	0.141435	0.578723	0.803166	-0.042732	0.814135	-0.579101	-0.989025	0.047584	0.139878
560	684007790													-0.442460	-0.909349	0.189680	0.143823	0.591610	0.793292	-0.047784	0.804843	-0.591561	-0.988449	0.047173	0.144025
561	684024457													-0.603809	-0.890938	-0.092149	0.146330	0.605386	0.782365	-0.052950	0.794538	-0.604902	-0.987818	0.047089	0.148320
562	684041124													-0.651193	-0.917619	-0.492409	0.149485	0.621082	0.769358	-0.057800	0.782259	-0.620266	-0.987073	0.048252	0.152835
563	684057791													-0.747898	-1.024412	-0.659850	0.153739	0.638168	0.754391	-0.061499	0.768167	-0.637289	-0.986196	0.051581	0.157344
564	684074458													-1.002432	-0.991339	-0.469340	0.157267	0.656006	0.738189	-0.064171	0.752699	-0.655230	-0.985469	0.055676	0.160472
565	684091125													-1.165732	-0.999492	-0.289378	0.159760	0.674243	0.721022	-0.066503	0.736096	-0.673603	-0.984913	0.059665	0.162438
566	684107792													-1.039529	-1.223615	-0.339970	0.161606	0.692040	0.703537	-0.068539	0.719057	-0.691563	-0.984472	0.063541	0.163635
567	684124459													-1.021508	-1.250605	-0.377333	0.163163	0.708397	0.686696	-0.070062	0.702586	-0.708141	-0.984108	0.067431	0.164268
568	684141126													-1.071182	-1.004876	-0.261082	0.165028	0.723120	0.670718	-0.071330	0.687012	-0.723137	-0.983706	0.071495	0.164957
569	684157793													-1.056836	-0.704227	-0.089364	0.167416	0.736621	0.655256	-0.072909	0.672067	-0.736892	-0.983187	0.075593	0.166221
570	684174460													-0.928895	-0.499829	0.020758	0.169956	0.749557	0.639750	-0.075326	0.657177	-0.749963	-0.982569	0.079271	0.168152
571	684191127													-1.149204	-0.421946	-0.049432	0.171862	0.762672	0.623534	-0.078834	0.641570	-0.763003	-0.981962	0.081975	0.170385
572	684207794													-0.826195	-0.994757	-0.146035	0.172858	0.776325	0.606168	-0.083210	0.624742	-0.776385	-0.981426	0.083765	0.172590
573	684224461													0.361636	-1.836411	0.455008	0.171715	0.790606	0.587755	-0.087530	0.606501	-0.790250	-0.981250	0.084252	0.173347
574	684241128													0.642864	-1.002520	1.957910	0.168609	0.805633	0.567914	-0.090398	0.586373	-0.804981	-0.981529	0.084388	0.171695
575	684257795													1.616853	-0.561344	2.815386	0.168094	0.819875	0.547311	-0.091074	0.565753	-0.819530	-0.981555	0.087912	0.169769
576	684274462													2.352392	0.471336	3.517723	0.171068	0.830507	0.530089	-0.088064	0.548755	-0.831332	-0.981316	0.095533	0.167012
577	684291129													2.773364	1.919518	2.951640	0.175281	0.837388	0.517743	-0.080612	0.536326	-0.840152	-0.981213	0.105526	0.161511
578	684307796													2.925251	1.010063	1.378802	0.180680	0.840786	0.510327	-0.071821	0.528760	-0.845727	-0.980916	0.116154	0.155923
579	684324463													1.747107	-0.792909	-0.180913	0.184678	0.842638	0.505822	-0.065926	0.524137	-0.849079	-0.980585	0.123459	0.152348
580	684341130													0.340736	-1.293798	-1.033184	0.187102	0.844996	0.500974	-0.063997	0.519382	-0.852143	-0.980254	0.127377	0.151255
581	684357797													-0.496345	-1.054315	-1.157630	0.186856	0.849853	0.492782	-0.065846	0.511324	-0.856862	-0.980178	0.127662	0.151504
582	684374464													-0.439069	-0.176680	-0.882010	0.185139	0.856995	0.480919	-0.069036	0.499512	-0.863552	-0.980285	0.126676	0.151642
583	684391131													0.638322	0.089532	-0.467209	0.186130	0.864484	0.466930	-0.071340	0.485871	-0.871114	-0.979932	0.128829	0.152107
584	684407798													1.831404	0.429537	0.017313	0.189462	0.870929	0.453417	-0.072112	0.472875	-0.878174	-0.979237	0.133684	0.152396
585	684424465													2.709687	0.881258	0.101137	0.192974	0.876252	0.441524	-0.071909	0.461402	-0.884272	-0.978565	0.138892	0.152048
586	684441132													3.291393	1.252148	0.122323	0.195217	0.880521	0.431942	-0.071410	0.452008	-0.889151	-0.978157	0.142732	0.151118
587	684457799													3.392722	1.082416	-0.141492	0.196198	0.883506	0.425350	-0.070866	0.445422	-0.892512	-0.978000	0.144966	0.150001
588	684474466													3.002505	0.410455	-0.411486	0.195354	0.885584	0.421400	-0.070813	0.441294	-0.894564	-0.978173	0.144916	0.148919
589	684491133													2.229409	-0.149038	-0.504129	0.193032	0.887373	0.418698	-0.071987	0.438381	-0.895902	-0.978548	0.142797	0.148501
590	684507800													1.550687	-0.448110	-0.447101	0.189900	0.889377	0.415868	-0.074630	0.435426	-0.897126	-0.978963	0.139328	0.149061
591	684524467													1.022328	-0.496218	-0.328074	0.186881	0.891601	0.412460	-0.078635	0.432086	-0.898397	-0.979230	0.135460	0.150860
592	684541134													0.818515	-0.550713	-0.223235	0.184691	0.893933	0.408379	-0.083423	0.428287	-0.899784	-0.979250	0.132114	0.153675
593	684557801													0.839211	-0.580085	-0.104333	0.183715	0.896349	0.403493	-0.088462	0.423890	-0.901383	-0.978991	0.129904	0.157168
594	684574468													1.032729	-0.611381	-0.179284	0.183194	0.899121	0.397520	-0.093283	0.418437	-0.903443	-0.978641	0.128423	0.160528
595	684591135													1.228412	-0.678704	-0.208898	0.182781	0.902219	0.390631	-0.097574	0.412009	-0.905940	-0.978300	0.127473	0.163341
596	684607802													1.263654	-0.679058	-0.145596	0.182091	0.905485	0.383328	-0.101212	0.405035	-0.908682	-0.978059	0.126666	0.165399
597	684624469													1.119239	-0.653213	-0.034367	0.180921	0.908827	0.375900	-0.104455	0.397802	-0.911506	-0.977935	0.125646	0.166902
598	684641136													0.823408	-0.501840	-0.105108	0.179197	0.912158	0.368587	-0.107645	0.390581	-0.914253	-0.977906	0.124155	0.168180
599	684657803													0.566396	-0.414598	-0.368644	0.177322	0.915253	0.361757	-0.110897	0.383824	-0.916723	-0.977885	0.122437	0.169559
600	684674470													0.469553	-0.205097	-0.670543	0.175552	0.918003	0.355602	-0.114268	0.377771	-0.918821	-0.977816	0.120666	0.171217
601	684691137													0.497899	0.015048	-0.869049	0.173034	0.920474	0.350411	-0.117857	0.372572	-0.920489	-0.977839	0.117978	0.172952
602	684707804													0.438762	0.141784	-0.905293	0.169634	0.922860	0.345764	-0.121850	0.367798	-0.921888	-0.977945	0.114252	0.174842
603	684724471													0.597701	0.400584	-0.916427	0.165984	0.925007	0.341776	-0.125774	0.363611	-0.923021	-0.978075	0.110220	0.176695
604	684741138													0.804223	0.660379	-0.773743	0.162059	0.926924	0.338450	-0.128964	0.359937	-0.924020	-0.978317	0.106098	0.177871
605	684757805													0.916964	0.786925	-0.371078	0.157660	0.928666	0.335743	-0.131307	0.356691	-0.924949	-0.978725	0.101742	0.178176
606	684774472													0.873059	0.844510	0.180327	0.152736	0.929729	0.335075	-0.132571	0.355264	-0.925318	-0.979335	0.096908	0.177517
607	684791139													0.802478	0.676786	0.364350	0.147846	0.930063	0.336341	-0.132862	0.355673	-0.925119	-0.980046	0.092088	0.176155
608	684807806													0.788969	0.471144	0.252188	0.143256	0.929516	0.339821	-0.132470	0.358281	-0.924168	-0.980780	0.087376	0.174459
609	684824473													0.384824	0.204501	0.265295	0.139240	0.928319	0.344728	-0.131782	0.362393	-0.922662	-0.981451	0.083042	0.172795
610	684841140													0.192940	0.171339	0.374553	0.136276	0.927201	0.348893	-0.131197	0.365968	-0.921333	-0.981945	0.079781	0.171519
611	684857807													0.024011	-0.070944	0.561844	0.134595	0.926066	0.352541	-0.131026	0.369288	-0.920032	-0.982200	0.077640	0.171043
612	684874474													-0.148294	-0.282473	0.637673	0.133704	0.925075	0.355471	-0.131644	0.372092	-0.918813	-0.982239	0.076053	0.171530
613	684891141													-0.361504	-0.448965	0.556845	0.133800	0.924443	0.357075	-0.133266	0.373826	-0.917875	-0.982007	0.075226	0.173215
614	684907808													-0.420290	-0.538327	0.447164	0.134884	0.924141	0.357449	-0.135525	0.374562	-0.917244	-0.981549	0.075279	0.175767
615	684924475													-0.293377	-0.643651	0.592698	0.136742	0.924165	0.356679	-0.138011	0.374323	-0.916971	-0.980946	0.076162	0.178731
616	684941142													-0.029136	-0.576705	0.712712	0.138998	0.924550	0.354804	-0.140664	0.373082	-0.917073	-0.980252	0.077564	0.181909
617	684957809													0.291586	-0.476456	0.531313	0.141727	0.925042	0.352437	-0.143220	0.371446	-0.917342	-0.979490	0.079536	0.185129
618	684974476													0.583580	-0.388347	0.051436	0.144588	0.925374	0.350396	-0.145328	0.370136	-0.917540	-0.978762	0.081742	0.188000
619	684991143													0.776956	-0.287369	-0.112031	0.148063	0.925334	0.349047	-0.146917	0.369601	-0.917502	-0.978005	0.084567	0.190671
620	685007810													0.955614	-0.233538	-0.217099	0.152043	0.924912	0.348455	-0.148138	0.369896	-0.917187	-0.977209	0.087833	0.193255
621	685024477													0.980054	-0.185754	-0.385320	0.155279	0.924186	0.348954	-0.149236	0.371130	-0.916510	-0.976533	0.090238	0.195551
622	685041144													0.883980	-0.087956	-0.443366	0.157694	0.923227	0.350406	-0.150350	0.373156	-0.915505	-0.975975	0.091687	0.197651
623	685057811													0.822337	0.043934	-0.576366	0.159523	0.921924	0.352998	-0.151292	0.376184	-0.914109	-0.975532	0.092415	0.199490
624	685074478													0.786801	0.318374	-0.664903	0.160529	0.920111	0.357249	-0.152076	0.380677	-0.912117	-0.975245	0.092092	0.201037
625	685091145													0.712325	0.419160	-0.397375	0.160576	0.917998	0.362622	-0.153011	0.386100	-0.909678	-0.975091	0.090587	0.202462
626	685107812													0.536714	0.419865	0.021649	0.160143	0.915806	0.368313	-0.154339	0.391770	-0.907026	-0.974953	0.088409	0.204084
627	685124479													0.210645	0.461321	0.248818	0.159735	0.913327	0.374592	-0.155758	0.398030	-0.904053	-0.974794	0.086063	0.205837
628	685141146													-0.061838	0.524387	0.276314	0.159789	0.910485	0.381425	-0.156980	0.404909	-0.900781	-0.974589	0.084059	0.207628
629	685157813													-0.162511	0.678191	0.157360	0.160218	0.907405	0.388517	-0.157890	0.412093	-0.897357	-0.974372	0.082429	0.209295
630	685174480													-0.084051	0.646136	0.036328	0.161557	0.904101	0.395602	-0.158529	0.419438	-0.893835	-0.974047	0.081691	0.211089
631	685191147													-0.035462	0.535936	0.042622	0.163409	0.900558	0.402855	-0.159071	0.427052	-0.890125	-0.973650	0.081372	0.213037
632	685207814													-0.027561	0.598550	0.179455	0.165703	0.896608	0.410653	-0.159055	0.435256	-0.886145	-0.973265	0.081521	0.214733
633	685224481													0.025663	0.555802	0.138223	0.168541	0.892035	0.419365	-0.158369	0.444430	-0.881704	-0.972889	0.082189	0.216175
634	685241148													-0.043118	0.560517	-0.050624	0.171274	0.886933	0.428971	-0.157256	0.454433	-0.876790	-0.972592	0.082713	0.217308
635	685257815													-0.017660	0.639081	-0.157123	0.174306	0.881310	0.439216	-0.155889	0.465117	-0.871415	-0.972274	0.083424	0.218460
636	685274482													0.051528	0.640249	-0.132099	0.177231	0.875219	0.450091	-0.154425	0.476396	-0.865563	-0.971978	0.083899	0.219588
637	685291149													0.100339	0.626480	0.008692	0.179838	0.868527	0.461865	-0.152844	0.488489	-0.859079	-0.971749	0.083902	0.220598
638	685307816													0.069294	0.584681	0.167434	0.182592	0.860973	0.474748	-0.150986	0.501692	-0.851768	-0.971526	0.083846	0.221600
639	685324483													0.027998	0.600038	0.127345	0.185736	0.852452	0.488699	-0.148895	0.516027	-0.843532	-0.971253	0.083909	0.222771
640	685341150													-0.014694	0.511158	0.035224	0.189154	0.843149	0.503310	-0.146647	0.531070	-0.834541	-0.970935	0.084048	0.224099
641	685357817													-0.067080	0.461419	0.056850	0.192971	0.833303	0.518042	-0.144144	0.546313	-0.825085	-0.970559	0.084545	0.225538
642	685374484													-0.105137	0.407292	-0.022693	0.196733	0.823088	0.532749	-0.141473	0.561513	-0.815285	-0.970197	0.085023	0.226913
643	685391151													-0.233185	0.365909	-0.011512	0.200161	0.812503	0.547517	-0.138633	0.576690	-0.805114	-0.969905	0.085249	0.228071
644	685407818													-0.338375	0.317878	-0.043009	0.203491	0.801526	0.562270	-0.135687	0.591832	-0.794559	-0.969629	0.085392	0.229189
645	685424485													-0.563332	0.295080	-0.107497	0.206863	0.790232	0.576837	-0.132817	0.606814	-0.783668	-0.969313	0.085498	0.230484
646	685441152													-0.789236	0.318548	-0.182027	0.210005	0.778751	0.591139	-0.129936	0.621489	-0.772572	-0.969028	0.085434	0.231703
647	685457819													-0.856401	0.277290	-0.327278	0.213346	0.767070	0.605051	-0.126926	0.635823	-0.761327	-0.968697	0.085629	0.233011
648	685474486													-0.850779	0.272447	-0.482282	0.216914	0.755176	0.618593	-0.123603	0.649828	-0.749964	-0.968334	0.086218	0.234299
649	685491153													-0.950195	0.365390	-0.463274	0.219969	0.743278	0.631785	-0.119916	0.663338	-0.738649	-0.968108	0.086719	0.235044
650	685507820													-1.005649	0.509490	-0.263762	0.222922	0.731408	0.644475	-0.115792	0.676297	-0.727471	-0.967935	0.087545	0.235453
651	685524487													-1.061332	0.760337	-0.121394	0.226083	0.719444	0.656724	-0.111147	0.688829	-0.716352	-0.967746	0.088962	0.235697
652	685541154													-1.017565	0.985939	-0.097559	0.229725	0.707288	0.668558	-0.106101	0.701035	-0.705189	-0.967455	0.091065	0.236089
653	685557821													-0.997670	1.048384	-0.057611	0.232920	0.695356	0.679874	-0.100877	0.712606	-0.694274	-0.967250	0.093126	0.236125
654	685574488													-1.136788	1.030888	-0.033542	0.235804	0.683742	0.690574	-0.095758	0.723503	-0.683648	-0.967071	0.095079	0.236079
655	685591155													-1.375432	0.848301	-0.090778	0.238827	0.672291	0.700704	-0.090874	0.733892	-0.673160	-0.966801	0.097093	0.236367
656	685607822													-1.672631	0.617435	-0.267747	0.242036	0.661143	0.710147	-0.086107	0.743657	-0.662993	-0.966439	0.099319	0.236921
657	685624489													-1.678869	0.355838	-0.420035	0.245684	0.650432	0.718733	-0.081077	0.752649	-0.653411	-0.965953	0.102260	0.237649
658	685641156													-1.633878	0.249684	-0.573284	0.249370	0.640156	0.726647	-0.075413	0.760910	-0.644460	-0.965468	0.105910	0.238024
659	685657823													-1.776316	0.530133	-0.804926	0.252626	0.629928	0.734418	-0.068857	0.768819	-0.635749	-0.965111	0.110037	0.237598
660	685674490													-1.812038	0.824220	-0.977205	0.254686	0.620012	0.742105	-0.061383	0.776229	-0.627455	-0.965074	0.114252	0.235753
661	685691157													-1.525063	0.600596	-1.060803	0.255812	0.611273	0.748936	-0.054006	0.782540	-0.620254	-0.965217	0.118222	0.233195
662	685707824													0.098609	-0.820724	-0.207129	0.257087	0.604786	0.753751	-0.047435	0.786924	-0.615224	-0.965223	0.122412	0.230996
663	685724491													-0.957502	-1.378577	1.932202	0.255810	0.601780	0.756586	-0.042702	0.788896	-0.613041	-0.965783	0.124514	0.227505
664	685741158													-2.757905	-1.851274	4.298382	0.251669	0.601982	0.757813	-0.042953	0.789191	-0.612644	-0.966860	0.121633	0.224472
665	685757825													-1.627850	-2.672193	5.166171	0.245318	0.607232	0.755704	-0.047650	0.786135	-0.616215	-0.968271	0.115159	0.221787
666	685774492													-1.386988	-1.953570	2.532296	0.243533	0.615113	0.749885	-0.053061	0.780455	-0.622957	-0.968440	0.111920	0.222705
667	685791159													0.382906	-0.649198	0.901673	0.245200	0.623569	0.742320	-0.055206	0.773433	-0.631470	-0.967899	0.113856	0.224070
668	685807826													1.337086	0.730411	-0.108272	0.242987	0.631719	0.736131	-0.053116	0.766401	-0.640163	-0.968574	0.116451	0.219780
669	685824493													1.916961	1.212813	-0.172963	0.241107	0.637051	0.732143	-0.048426	0.761357	-0.646522	-0.969290	0.120426	0.214418
670	685841160													2.847815	0.954929	0.226151	0.242822	0.638054	0.730701	-0.042809	0.759560	-0.649027	-0.969126	0.126317	0.211752
671	685857827													3.343288	0.450722	-0.232572	0.244903	0.634727	0.732901	-0.037813	0.761598	-0.646945	-0.968810	0.130725	0.210519
672	685874494													3.389804	-0.225920	-0.917233	0.244768	0.629009	0.737859	-0.034799	0.766217	-0.641639	-0.968957	0.131376	0.209434
673	685891161													2.853616	-0.841216	-0.822310	0.243706	0.623446	0.742915	-0.035226	0.771196	-0.635623	-0.969209	0.128735	0.209907
674	685907828													1.774340	-1.154105	-0.079525	0.241959	0.619224	0.747006	-0.038739	0.775433	-0.630240	-0.969513	0.123554	0.211611
675	685924495													0.871903	-1.496908	0.477250	0.238843	0.617058	0.749796	-0.043202	0.778131	-0.626615	-0.970097	0.117270	0.212509
676	685941162													0.361021	-1.872546	0.224606	0.234308	0.617303	0.751024	-0.046039	0.778708	-0.625695	-0.971072	0.112029	0.210878
677	685957829													0.156248	-2.046669	-0.357915	0.230172	0.619750	0.750287	-0.046087	0.777065	-0.627730	-0.972058	0.109908	0.207421
678	685974496													0.204664	-1.980851	-0.548196	0.226865	0.623034	0.748572	-0.043486	0.774327	-0.631290	-0.972955	0.110665	0.202760
679	685991163													0.165742	-1.794776	-0.491434	0.224523	0.625339	0.747355	-0.038558	0.772037	-0.634407	-0.973706	0.113623	0.197452
680	686007830													0.227301	-1.473263	-0.439718	0.222976	0.626712	0.746669	-0.032306	0.770282	-0.636884	-0.974289	0.117888	0.192001
681	686024497													0.291671	-1.131535	-0.161567	0.222084	0.628253	0.745639	-0.026115	0.768295	-0.639563	-0.974678	0.122564	0.187033
682	686041164													0.311549	-0.676602	0.108777	0.221074	0.630433	0.744097	-0.020806	0.765851	-0.642682	-0.975035	0.126598	0.182427
683	686057831													0.292250	-0.430513	0.055474	0.219194	0.633039	0.742439	-0.016488	0.763239	-0.645906	-0.975542	0.129337	0.177735
684	686074498													0.224417	-0.346045	-0.162349	0.216801	0.635422	0.741105	-0.012514	0.760908	-0.648740	-0.976136	0.131373	0.172917
685	686091165													0.269988	-0.456164	-0.361920	0.214796	0.637182	0.740177	-0.008325	0.759033	-0.650999	-0.976623	0.133670	0.168342
686	686107832													0.269138	-0.409266	-0.325854	0.212847	0.638494	0.739609	-0.003967	0.757512	-0.652809	-0.977078	0.136014	0.163767
687	686124499													0.173347	-0.328223	-0.062362	0.210727	0.639598	0.739262	0.000166	0.756220	-0.654318	-0.977545	0.138006	0.159250
688	686141166													0.064519	-0.340737	0.178179	0.209482	0.640254	0.739049	0.003731	0.755289	-0.655381	-0.977805	0.140048	0.155830
689	686157833													0.090178	-0.487718	0.185767	0.209542	0.640615	0.738718	0.006399	0.754576	-0.656182	-0.977779	0.142225	0.154016
690	686174500													0.060792	-0.348954	-0.003233	0.210479	0.641224	0.737923	0.007923	0.753689	-0.657183	-0.977566	0.144170	0.153556
691	686191167													0.180370	-0.342820	-0.311135	0.212119	0.642233	0.736575	0.008311	0.752514	-0.658524	-0.977209	0.145807	0.154284
692	686207834													0.250682	-0.405384	-0.393627	0.214218	0.643205	0.735117	0.007653	0.751460	-0.659735	-0.976756	0.146953	0.156054
693	686224501													0.166113	-0.501502	-0.352434	0.216333	0.643937	0.733856	0.006221	0.750731	-0.660579	-0.976300	0.147470	0.158402
694	686241168													-0.005169	-0.568582	-0.241996	0.218508	0.644534	0.732687	0.004147	0.750211	-0.661186	-0.975826	0.147513	0.161254
695	686257835													-0.278414	-0.644694	-0.274798	0.220059	0.645363	0.731492	0.001837	0.749598	-0.661890	-0.975485	0.146998	0.163771
696	686274502													-0.416455	-0.690571	-0.195333	0.221078	0.646438	0.730235	-0.000584	0.748850	-0.662740	-0.975256	0.146090	0.165932
697	686291169													-0.489031	-0.756190	-0.129916	0.222416	0.647911	0.728520	-0.003146	0.747710	-0.664018	-0.974947	0.145396	0.168342
698	686307836													-0.617360	-0.756309	-0.110528	0.223782	0.650356	0.725919	-0.005925	0.745702	-0.666253	-0.974621	0.144794	0.170728
699	686324503													-0.690583	-0.734044	-0.136163	0.224724	0.654114	0.722242	-0.009087	0.742575	-0.669702	-0.974380	0.143935	0.172818
700	686341170													-0.826164	-0.793990	-0.410314	0.225244	0.659171	0.717467	-0.012521	0.738288	-0.674369	-0.974222	0.142914	0.174548
701	686357837													-0.994530	-0.825517	-0.544371	0.224867	0.665332	0.711877	-0.015866	0.732991	-0.680053	-0.974260	0.141627	0.175382
702	686374504													-1.193412	-0.686776	-0.412757	0.223013	0.672546	0.705654	-0.019002	0.726746	-0.686644	-0.974630	0.139721	0.174853
703	686391171													-1.386110	-0.556350	-0.249313	0.220504	0.680700	0.698588	-0.022037	0.719511	-0.694131	-0.975137	0.137664	0.173655
704	686407838													-1.469006	-0.515298	-0.105848	0.218334	0.689425	0.690669	-0.024920	0.711452	-0.702293	-0.975556	0.136123	0.172514
705	686424505													-1.548165	-0.672190	-0.046186	0.216986	0.698024	0.682407	-0.027692	0.703183	-0.710470	-0.975782	0.135265	0.171911
706	686441172													-1.452900	-0.772834	-0.057846	0.216263	0.706273	0.674098	-0.030575	0.694998	-0.718361	-0.975856	0.134744	0.171896
707	686457839													-1.238917	-0.554106	0.069060	0.216453	0.714181	0.665652	-0.033788	0.686888	-0.725978	-0.975708	0.134649	0.172810
708	686474506													-1.076041	-0.339332	-0.050320	0.217729	0.721787	0.656976	-0.037452	0.678808	-0.733360	-0.975290	0.135069	0.174829
709	686491173													-1.035149	-0.225589	-0.314413	0.219210	0.729211	0.648227	-0.041595	0.670767	-0.740501	-0.974791	0.135363	0.177370
710	686507840													-1.015561	-0.207966	-0.639628	0.220188	0.736340	0.639782	-0.045946	0.662980	-0.747226	-0.974375	0.135135	0.179812
711	686524507													-0.952670	-0.280409	-0.733848	0.220615	0.742971	0.631920	-0.050491	0.655714	-0.753319	-0.974053	0.134288	0.182174
712	686541174													-0.843569	-0.538563	-0.613852	0.220501	0.749218	0.624541	-0.055329	0.648878	-0.758878	-0.973816	0.132778	0.184531
713	686557841													0.259860	-1.392568	-0.166117	0.218995	0.755409	0.617575	-0.060375	0.642217	-0.764142	-0.973856	0.130057	0.186250
714	686574508													0.999174	-1.271809	1.058237	0.214964	0.762692	0.609993	-0.065339	0.634427	-0.770217	-0.974434	0.125712	0.186213
715	686591175													0.802170	0.543536	2.515468	0.210186	0.769969	0.602470	-0.068618	0.626334	-0.776529	-0.975250	0.121875	0.184480
716	686607842													1.327334	1.115987	2.686275	0.209306	0.773942	0.597665	-0.068005	0.621245	-0.780660	-0.975482	0.122753	0.182663
717	686624509													1.596686	1.219176	2.015972	0.210346	0.774040	0.597174	-0.064352	0.620478	-0.781579	-0.975507	0.125972	0.180326
718	686641176													1.184482	-0.132574	0.924712	0.211691	0.772154	0.599137	-0.060616	0.622224	-0.780489	-0.975455	0.128905	0.178524
719	686657843													0.322643	-1.349474	0.082872	0.212543	0.770502	0.600959	-0.059226	0.624038	-0.779146	-0.975355	0.130010	0.178269
720	686674510													-1.048310	-1.570604	0.063120	0.211384	0.770875	0.600889	-0.060703	0.623949	-0.779104	-0.975516	0.128214	0.178687
721	686691177													-1.974077	-1.717514	0.520339	0.210836	0.774016	0.597032	-0.064073	0.620390	-0.781672	-0.975419	0.126551	0.180394
722	686707844													-1.593921	-1.846821	0.766633	0.213019	0.779181	0.589492	-0.067227	0.613598	-0.786751	-0.974732	0.127963	0.183091
723	686724511													-0.527124	-1.734630	0.602742	0.217174	0.785566	0.579415	-0.069310	0.604494	-0.793589	-0.973669	0.132187	0.185728
724	686741178													0.413748	-1.154973	0.408963	0.221962	0.793144	0.567146	-0.070470	0.593183	-0.801977	-0.972505	0.138042	0.187557
725	686757845													1.185735	-0.584004	0.258190	0.227550	0.801214	0.553422	-0.071230	0.580505	-0.811135	-0.971158	0.145154	0.189164
726	686774512													1.746329	-0.277478	0.020375	0.233450	0.808973	0.539503	-0.071837	0.567666	-0.820119	-0.969711	0.152701	0.190636
727	686791179													1.988015	-0.262092	-0.424029	0.238746	0.816141	0.526226	-0.071913	0.555268	-0.828556	-0.968416	0.159972	0.191259
728	686807846													1.823052	-0.358769	-0.709944	0.243277	0.822504	0.514105	-0.071081	0.543721	-0.836250	-0.967349	0.166898	0.190739
729	686824513													1.600996	-0.425579	-0.845794	0.247667	0.827896	0.503239	-0.069807	0.533320	-0.843028	-0.966327	0.173660	0.189879
730	686841180													1.403147	-0.363968	-0.901145	0.251437	0.832723	0.493306	-0.069177	0.523839	-0.849004	-0.965398	0.179345	0.189318
731	686857847													1.238347	-0.160700	-0.753344	0.254000	0.837612	0.483622	-0.070090	0.514646	-0.854533	-0.964661	0.183154	0.189428
732	686874514													1.273271	0.186774	-0.395008	0.256026	0.842580	0.473825	-0.072454	0.505510	-0.859774	-0.963951	0.185794	0.190472
733	686891181													1.407879	0.307840	-0.114657	0.257930	0.847522	0.463874	-0.075964	0.496422	-0.864751	-0.963173	0.187808	0.192423
734	686907848													1.493964	0.275187	0.117477	0.259400	0.852367	0.454072	-0.080159	0.487546	-0.869410	-0.962438	0.189127	0.194795
735	686924515													1.427571	0.160341	0.311787	0.260766	0.856804	0.444847	-0.084578	0.479293	-0.873570	-0.961690	0.190174	0.197450
736	686941182													1.283118	0.088232	0.368923	0.261804	0.860826	0.436391	-0.088779	0.471725	-0.877265	-0.961029	0.190929	0.199923
737	686957849													1.062897	-0.000933	0.284290	0.262513	0.864618	0.428395	-0.092538	0.464477	-0.880737	-0.960481	0.191562	0.201941
738	686974516													0.925042	-0.061960	0.196939	0.263376	0.868345	0.420249	-0.095826	0.457025	-0.884277	-0.959922	0.192627	0.203579
739	686991183													0.802236	-0.056770	0.208618	0.264349	0.872275	0.411407	-0.099247	0.448922	-0.888042	-0.959307	0.193922	0.205243
740	687007850													0.664165	-0.023467	0.188779	0.265488	0.876504	0.401569	-0.103301	0.439979	-0.892047	-0.958564	0.195345	0.207352
741	687024517													0.526124	-0.019648	0.175836	0.266857	0.880942	0.390804	-0.107987	0.430288	-0.896209	-0.957667	0.196958	0.209956
742	687041184													0.527401	-0.080482	0.012483	0.268621	0.885384	0.379392	-0.112963	0.420106	-0.900417	-0.956599	0.199014	0.212865
743	687057851													0.509673	-0.110171	-0.055984	0.270500	0.889846	0.367429	-0.117963	0.409418	-0.904689	-0.955466	0.201375	0.215716
744	687074518													0.493741	-0.163081	-0.042160	0.272509	0.894332	0.354836	-0.122924	0.398133	-0.909055	-0.954269	0.204108	0.218429
745	687091185													0.425926	-0.229197	-0.058934	0.274579	0.898843	0.341595	-0.127795	0.386210	-0.913515	-0.953035	0.207178	0.220913
746	687107852													0.370554	-0.365570	-0.020411	0.276774	0.903375	0.327583	-0.132452	0.373511	-0.918121	-0.951763	0.210723	0.223032
747	687124519													0.339761	-0.261484	-0.044863	0.278990	0.907885	0.312905	-0.136628	0.360055	-0.922872	-0.950525	0.214721	0.224494
748	687141186													0.354137	-0.134416	-0.110801	0.281435	0.912177	0.297872	-0.140108	0.346155	-0.927657	-0.949297	0.219341	0.225223
749	687157853													0.396384	-0.118062	-0.247215	0.284102	0.916187	0.282645	-0.142996	0.331984	-0.932383	-0.948071	0.224475	0.225328
750	687174520													0.498475	-0.169139	-0.439569	0.286564	0.920038	0.267229	-0.145397	0.317459	-0.937059	-0.946964	0.229673	0.224743
751	687191187													0.533351	-0.179100	-0.460834	0.288758	0.923809	0.251389	-0.147638	0.302400	-0.941678	-0.945950	0.234802	0.223709
752	687207854													0.502531	-0.144591	-0.465255	0.290575	0.927508	0.235150	-0.149892	0.286842	-0.946179	-0.945039	0.239689	0.222375
753	687224521													0.459225	-0.088123	-0.391066	0.291871	0.931098	0.218786	-0.152007	0.270995	-0.950503	-0.944301	0.244167	0.220629
754	687241188													0.530710	0.019346	-0.197309	0.292848	0.934452	0.202583	-0.153654	0.255110	-0.954625	-0.943732	0.248432	0.218291
755	687257855													0.692073	-0.024279	-0.046635	0.293374	0.937559	0.186854	-0.154839	0.239474	-0.958476	-0.943375	0.252259	0.215427
756	687274522													0.732991	-0.019340	0.088391	0.293301	0.940430	0.171948	-0.155679	0.224440	-0.961972	-0.943260	0.255379	0.212233
757	687291189													0.569611	-0.050081	0.177345	0.292815	0.942933	0.158547	-0.156046	0.210717	-0.965012	-0.943350	0.257829	0.208843
758	687307856													0.459044	0.041501	0.106544	0.292342	0.945149	0.145702	-0.156225	0.197511	-0.967772	-0.943467	0.260159	0.205397
759	687324523													0.366230	-0.012713	-0.012161	0.291482	0.947318	0.132767	-0.156613	0.184181	-0.970335	-0.943669	0.262042	0.202048
760	687341190													0.354846	0.090876	0.005463	0.290401	0.949379	0.119777	-0.157316	0.170835	-0.972660	-0.943885	0.263618	0.198964
761	687357857													0.305937	0.086220	0.045971	0.289339	0.951239	0.106896	-0.158305	0.157686	-0.974718	-0.944046	0.265102	0.196210
762	687374524													0.255766	0.207173	0.108468	0.288170	0.952950	0.094044	-0.159550	0.144620	-0.976539	-0.944194	0.266405	0.193719
763	687391191													0.235076	0.345333	0.103766	0.286994	0.954490	0.081135	-0.160811	0.131501	-0.978186	-0.944338	0.267686	0.191233
764	687407858													0.171507	0.297954	0.192326	0.285846	0.955858	0.068024	-0.161874	0.118129	-0.979716	-0.944505	0.269036	0.188495
765	687424525													0.156050	0.306896	0.161402	0.284603	0.957042	0.055421	-0.162324	0.105087	-0.981126	-0.944803	0.270236	0.185259
766	687441192													0.237428	0.206397	0.085334	0.283841	0.957874	0.043727	-0.161826	0.092802	-0.982446	-0.945117	0.271782	0.181350
767	687457859													0.434695	0.081269	0.054240	0.283309	0.958472	0.032661	-0.160581	0.080986	-0.983695	-0.945489	0.273445	0.176857
768	687474526													0.517774	0.081657	0.123372	0.282765	0.958933	0.022184	-0.158805	0.069611	-0.984853	-0.945952	0.274959	0.171967
769	687491193													0.528322	0.025753	0.288003	0.282712	0.959121	0.012643	-0.156678	0.059178	-0.985875	-0.946322	0.276738	0.167004
770	687507860													0.561651	-0.016363	0.271717	0.283237	0.959041	0.004179	-0.154416	0.049904	-0.986745	-0.946537	0.278838	0.162226
771	687524527													0.509398	-0.080551	0.055341	0.284053	0.958800	-0.003995	-0.152174	0.040969	-0.987504	-0.946656	0.281111	0.157542
772	687541194													0.660167	-0.134954	-0.104918	0.284810	0.958509	-0.011997	-0.149802	0.032144	-0.988193	-0.946807	0.283245	0.152741
773	687557861													0.758429	-0.072762	-0.234114	0.285124	0.958295	-0.019349	-0.147373	0.023883	-0.988793	-0.947093	0.284780	0.148037
774	687574528													0.773092	-0.037027	-0.278969	0.284973	0.958172	-0.026416	-0.145004	0.015852	-0.989304	-0.947504	0.285755	0.143456
775	687591195													0.752889	-0.062400	-0.227850	0.284249	0.958170	-0.033357	-0.142431	0.007796	-0.989774	-0.948112	0.286094	0.138690
776	687607862													0.683631	-0.035253	-0.043335	0.283092	0.958247	-0.040274	-0.139654	-0.000360	-0.990200	-0.948871	0.285942	0.133721
777	687624529													0.637558	-0.059425	0.050058	0.281918	0.958276	-0.047213	-0.136755	-0.008571	-0.990568	-0.949642	0.285715	0.128633
778	687641196													0.705992	-0.052715	0.027119	0.280615	0.958294	-0.054111	-0.133713	-0.016796	-0.990878	-0.950461	0.285291	0.123423
779	687657863													0.798613	-0.083582	0.095825	0.279321	0.958259	-0.060991	-0.130535	-0.025034	-0.991128	-0.951284	0.284804	0.118094
780	687674530													1.014969	-0.040615	0.251656	0.278061	0.958175	-0.067702	-0.127399	-0.033072	-0.991300	-0.952078	0.284267	0.112875
781	687691197													1.165222	-0.015561	0.318668	0.276904	0.958052	-0.073890	-0.124485	-0.040482	-0.991395	-0.952800	0.283720	0.108054
782	687707864													1.308785	-0.139269	0.309278	0.275958	0.957850	-0.079815	-0.122077	-0.047439	-0.991386	-0.953386	0.283324	0.103840
783	687724531													1.394857	-0.281361	0.214564	0.275199	0.957551	-0.085800	-0.120307	-0.054243	-0.991254	-0.953830	0.283114	0.100273
784	687741198													1.368912	-0.322422	0.113515	0.274438	0.957201	-0.091922	-0.119046	-0.061037	-0.991011	-0.954207	0.282914	0.097200
785	687757865													1.280942	-0.379706	-0.071832	0.273527	0.956842	-0.098163	-0.118059	-0.067886	-0.990683	-0.954591	0.282568	0.094395
786	687774532													1.194907	-0.338962	-0.178531	0.272320	0.956511	-0.104537	-0.116908	-0.074947	-0.990311	-0.955078	0.281903	0.091414
787	687791199													1.159718	-0.363871	-0.332225	0.270913	0.956175	-0.111065	-0.115210	-0.082343	-0.989922	-0.955685	0.280978	0.087853
788	687807866													1.151333	-0.315442	-0.487179	0.269275	0.955838	-0.117744	-0.112822	-0.090109	-0.989521	-0.956432	0.279738	0.083575
789	687824533													1.116075	-0.357075	-0.540533	0.267384	0.955508	-0.124544	-0.109545	-0.098269	-0.989112	-0.957343	0.278116	0.078395
790	687841200													1.057432	-0.401731	-0.433128	0.265066	0.955264	-0.131190	-0.105407	-0.106535	-0.988706	-0.958452	0.275900	0.072453
791	687857867													0.952046	-0.219004	-0.197288	0.262336	0.955151	-0.137352	-0.100669	-0.114472	-0.988313	-0.959711	0.273097	0.066124
792	687874534													0.726075	-0.003608	-0.191830	0.259488	0.955075	-0.143173	-0.095557	-0.122133	-0.987903	-0.961007	0.270030	0.059572
793	687891201													0.441555	-0.127160	-0.171410	0.256298	0.955013	-0.149204	-0.090085	-0.130088	-0.987402	-0.962391	0.266510	0.052691
794	687907868													0.083671	-0.172352	0.032603	0.252599	0.954940	-0.155831	-0.084511	-0.138664	-0.986727	-0.963873	0.262415	0.045677
795	687924535													-0.290061	-0.021702	0.311879	0.248570	0.954754	-0.163273	-0.079264	-0.147948	-0.985814	-0.965365	0.257985	0.038902
796	687941202													-0.455632	0.230217	0.533962	0.244320	0.954307	-0.172061	-0.075017	-0.158306	-0.984536	-0.966789	0.253449	0.032912
797	687957869													-0.513930	0.292101	0.623335	0.240680	0.953159	-0.183199	-0.072643	-0.170529	-0.982671	-0.967882	0.249817	0.028197
798	687974536													-0.673020	0.107851	0.714534	0.238801	0.950736	-0.197676	-0.073055	-0.185399	-0.979944	-0.968317	0.248453	0.025182
799	687991203													-0.938251	-0.071456	0.490029	0.238904	0.946914	-0.215125	-0.075844	-0.202667	-0.976306	-0.968077	0.249559	0.023400
800	688007870													-0.810205	-0.206652	-0.051549	0.239483	0.942181	-0.234400	-0.079190	-0.221666	-0.971902	-0.967666	0.251316	0.021526
801	688024537													-0.498076	-0.408256	-0.484021	0.238625	0.937512	-0.253239	-0.081081	-0.240627	-0.967225	-0.967721	0.251337	0.018595
802	688041204													-0.048987	-0.492385	-0.414044	0.235438	0.933310	-0.271110	-0.081059	-0.259123	-0.962437	-0.968503	0.248571	0.014646
803	688057871													0.091718	-0.501390	-0.088279	0.231416	0.929618	-0.286804	-0.079318	-0.275796	-0.957938	-0.969616	0.244431	0.009912
804	688074538													-0.346708	-0.562748	0.427471	0.227875	0.926361	-0.299880	-0.077135	-0.289841	-0.953961	-0.970630	0.240515	0.005407
805	688091205													-0.848219	-0.607530	0.703645	0.225434	0.923303	-0.310952	-0.075729	-0.301596	-0.950424	-0.971311	0.237806	0.001931
806	688107872													-1.136351	-0.460613	0.906133	0.223791	0.920250	-0.321027	-0.075681	-0.311978	-0.947070	-0.971694	0.236241	-0.000173
807	688124539													-1.417152	-0.308448	0.923484	0.222430	0.916888	-0.331424	-0.076759	-0.322415	-0.943481	-0.971922	0.235299	-0.001336
808	688141206													-1.706852	-0.105626	0.802829	0.221133	0.913007	-0.342810	-0.077390	-0.333976	-0.939399	-0.972168	0.234262	-0.003195
809	688157873													-1.789297	0.357980	0.726625	0.220516	0.908520	-0.354914	-0.075922	-0.346779	-0.934869	-0.972424	0.233099	-0.007494
810	688174540													-1.864658	0.504715	0.616984	0.221330	0.903232	-0.367675	-0.072182	-0.360818	-0.929839	-0.972524	0.232340	-0.014663
811	688191207													-1.897873	0.507242	0.179739	0.223034	0.897168	-0.381241	-0.066726	-0.376124	-0.924164	-0.972524	0.231559	-0.024024
812	688207874													-1.781032	0.676906	-0.125323	0.223573	0.890833	-0.395514	-0.060503	-0.392319	-0.917837	-0.972808	0.229133	-0.033814
813	688224541													-1.662017	0.851245	-0.111633	0.223069	0.884190	-0.410425	-0.054341	-0.409100	-0.910870	-0.973287	0.225490	-0.043210
814	688241208													-1.558968	1.024027	0.038991	0.221748	0.877192	-0.425866	-0.048660	-0.426240	-0.903300	-0.973889	0.221028	-0.051833
815	688257875													-1.467024	1.063770	0.315248	0.220621	0.869600	-0.441727	-0.043539	-0.443654	-0.895140	-0.974387	0.216719	-0.060018
816	688274542													-1.326812	0.932768	0.463000	0.220672	0.861245	-0.457778	-0.038914	-0.461201	-0.886442	-0.974572	0.213427	-0.068260
817	688291209													-1.146400	0.777689	0.387931	0.221905	0.851988	-0.474210	-0.034826	-0.479099	-0.877070	-0.974446	0.211141	-0.076643
818	688307876													-0.822837	0.601312	0.228271	0.224220	0.841547	-0.491452	-0.031244	-0.497825	-0.866715	-0.974038	0.209689	-0.085329
819	688324543													-0.515933	0.383360	-0.072010	0.227261	0.829960	-0.509430	-0.028100	-0.517312	-0.855336	-0.973428	0.208699	-0.094243
820	688341210													-0.344246	0.275324	-0.458488	0.230313	0.817496	-0.527878	-0.025474	-0.537211	-0.843063	-0.972783	0.207616	-0.102902
821	688357877													-0.233678	0.294220	-0.693178	0.232616	0.804383	-0.546679	-0.023326	-0.557322	-0.829968	-0.972289	0.205816	-0.110879
822	688374544													-0.320618	0.314938	-0.690592	0.234564	0.790646	-0.565561	-0.021702	-0.577388	-0.816181	-0.971858	0.203720	-0.118276
823	688391211													-0.409035	0.412649	-0.680135	0.235724	0.776443	-0.584440	-0.020843	-0.597209	-0.801815	-0.971596	0.201189	-0.124594
824	688407878													-0.440606	0.539992	-0.663725	0.236151	0.761711	-0.603348	-0.020685	-0.616828	-0.786826	-0.971496	0.198290	-0.129908
825	688424545													-0.330546	0.646178	-0.516967	0.235917	0.746438	-0.622233	-0.021077	-0.636226	-0.771215	-0.971545	0.195058	-0.134364
826	688441212													-0.142911	0.730837	-0.236782	0.235007	0.730546	-0.641150	-0.021917	-0.655474	-0.754900	-0.971747	0.191459	-0.138030
827	688457879													0.038919	0.776399	-0.083060	0.233961	0.713973	-0.659928	-0.023025	-0.674508	-0.737909	-0.971973	0.187836	-0.141369
828	688474546													0.170713	0.875649	-0.212709	0.232576	0.696780	-0.678532	-0.024247	-0.693293	-0.720248	-0.972276	0.183964	-0.144349
829	688491213													0.125285	0.985723	-0.162706	0.231440	0.679077	-0.696628	-0.025369	-0.711613	-0.702113	-0.972518	0.180170	-0.147468
830	688507880													0.120851	1.003908	-0.012430	0.230536	0.660631	-0.714437	-0.026309	-0.729714	-0.683246	-0.972708	0.176309	-0.150845
831	688524547													0.300790	1.085788	-0.024009	0.229348	0.641301	-0.732211	-0.027108	-0.747763	-0.663413	-0.972967	0.172002	-0.154114
832	688541214													0.370440	1.077266	-0.251754	0.228375	0.621124	-0.749699	-0.027534	-0.765621	-0.642703	-0.973184	0.167419	-0.157747
833	688557881													0.403929	1.134729	-0.055931	0.227473	0.600270	-0.766767	-0.027514	-0.783133	-0.621245	-0.973396	0.162414	-0.161626
834	688574548													0.560515	1.022879	-0.132970	0.227000	0.578354	-0.783567	-0.027213	-0.800490	-0.598728	-0.973515	0.157234	-0.165972
835	688591215													0.734055	0.934858	-0.146564	0.225846	0.555755	-0.800081	-0.026597	-0.817478	-0.575346	-0.973800	0.151220	-0.169843
836	688607882													0.862597	0.894416	-0.064940	0.224461	0.532734	-0.815973	-0.025895	-0.833783	-0.551485	-0.974139	0.144917	-0.173357
837	688624549													0.995480	0.840821	-0.037595	0.223404	0.509597	-0.830904	-0.025239	-0.849139	-0.527567	-0.974399	0.138831	-0.176839
838	688641216													1.022518	0.747234	-0.083158	0.222430	0.486503	-0.844891	-0.024782	-0.863499	-0.503742	-0.974634	0.132985	-0.180011
839	688657883													1.021662	0.653294	-0.164532	0.221518	0.463481	-0.857972	-0.024704	-0.876880	-0.480073	-0.974843	0.127540	-0.182796
840	688674550													0.921735	0.624723	-0.251218	0.220837	0.440842	-0.869994	-0.025036	-0.889161	-0.456909	-0.974989	0.122683	-0.185323
841	688691217													0.944893	0.573366	-0.293407	0.220316	0.418956	-0.880873	-0.025653	-0.900261	-0.434594	-0.975091	0.118345	-0.187594
842	688707884													0.979202	0.545497	-0.211345	0.218782	0.397276	-0.891238	-0.026706	-0.910586	-0.412456	-0.975408	0.114039	-0.188610
843	688724551													1.239737	0.370479	-0.192167	0.217085	0.376191	-0.900752	-0.027977	-0.919981	-0.390964	-0.975752	0.110072	-0.189189
844	688741218													1.401094	0.255376	-0.298722	0.215588	0.356207	-0.909197	-0.029446	-0.928297	-0.370672	-0.976040	0.106684	-0.189641
845	688757885													1.258427	0.233713	-0.401962	0.213714	0.337497	-0.916746	-0.031066	-0.935604	-0.351682	-0.976402	0.103639	-0.189467
846	688774552													1.176616	0.260782	-0.355713	0.211535	0.320148	-0.923449	-0.032780	-0.941975	-0.334079	-0.976820	0.100940	-0.188767
847	688791219													1.145196	0.280003	-0.245837	0.208998	0.303835	-0.929518	-0.034602	-0.947617	-0.317531	-0.977304	0.098527	-0.187536
848	688807886													0.725219	0.210721	-0.042576	0.206036	0.288145	-0.935158	-0.036701	-0.952715	-0.301641	-0.977856	0.096470	-0.185719
849	688824553													-0.452493	-0.187809	0.762089	0.202106	0.274101	-0.940224	-0.038618	-0.957059	-0.287310	-0.978602	0.094377	-0.182842
850	688841220													-0.183708	-0.346249	2.096601	0.197402	0.260255	-0.945145	-0.039015	-0.961267	-0.272843	-0.979546	0.090735	-0.179602
851	688857887													0.752815	-1.416063	2.696081	0.195030	0.248291	-0.948849	-0.036892	-0.964885	-0.260070	-0.980103	0.085727	-0.179022
852	688874554													0.490368	-1.837872	2.478805	0.194164	0.240268	-0.951090	-0.033239	-0.967373	-0.251168	-0.980406	0.080381	-0.179842
853	688891221													-0.008257	-1.290972	1.984618	0.193362	0.235907	-0.952344	-0.029571	-0.968820	-0.245993	-0.980682	0.075727	-0.180357
854	688907888													-0.652265	-0.405121	1.011883	0.191902	0.234338	-0.953026	-0.027195	-0.969432	-0.243848	-0.981037	0.072713	-0.179663
855	688924555													-0.903670	0.424143	0.405743	0.188783	0.232791	-0.954028	-0.027461	-0.969865	-0.242090	-0.981635	0.071901	-0.176701
856	688941222													-1.069153	1.013973	0.357004	0.186210	0.227651	-0.955772	-0.029945	-0.971020	-0.237117	-0.982053	0.072774	-0.173997
857	688957889													-1.366007	1.149867	0.471409	0.184871	0.218130	-0.958249	-0.033260	-0.973109	-0.227929	-0.982200	0.074009	-0.172645
858	688974556													-1.604339	0.878703	0.274203	0.184004	0.205472	-0.961210	-0.036125	-0.975833	-0.215513	-0.982261	0.074379	-0.172135
859	688991223													-2.032978	0.595642	-0.261645	0.185583	0.190761	-0.963934	-0.037680	-0.978872	-0.200972	-0.981906	0.073618	-0.174474
860	689007890													-2.329785	-0.015221	-0.950729	0.189541	0.174647	-0.966216	-0.037572	-0.982043	-0.184879	-0.981154	0.071345	-0.179575
861	689024557													-2.252658	-0.728436	-1.325727	0.193454	0.157894	-0.968321	-0.035766	-0.985174	-0.167787	-0.980457	0.067092	-0.184939
862	689041224													-1.998466	-1.373312	-1.380590	0.195845	0.141299	-0.970402	-0.032539	-0.988083	-0.150440	-0.980095	0.061039	-0.188914
