// Start Time: Unknown
// Update Rate: 100.0Hz
//Filter Profile: human (46.1)
// Option Flags: AHS Disabled ICC Disabled
// Firmware Version: 4.0.2
PacketCounter	SampleTimeFine	Year	Month	Day	Second	UTC_Nano	UTC_Year	UTC_Month	UTC_Day	UTC_Hour	UTC_Minute	UTC_Second	UTC_Valid	Acc_X	Acc_Y	Acc_Z	Mat[1][1]	Mat[1][2]	Mat[1][3]	Mat[2][1]	Mat[2][2]	Mat[2][3]	Mat[3][1]	Mat[3][2]	Mat[3][3]
1	688554356													-0.003418	0.062088	-0.013141	-0.178496	0.377405	-0.908683	0.012849	-0.922541	-0.385685	-0.983857	-0.080518	0.159821
2	688571023													0.028689	0.042930	-0.048262	-0.178382	0.376470	-0.909093	0.013421	-0.922895	-0.384819	-0.983870	-0.080846	0.159575
3	688587690													0.052583	0.013313	-0.097580	-0.178756	0.377433	-0.908620	0.013774	-0.922444	-0.385885	-0.983797	-0.081494	0.159693
4	688604357													0.031268	-0.022495	-0.095104	-0.179257	0.378255	-0.908179	0.013373	-0.922110	-0.386697	-0.983711	-0.081463	0.160237
5	688621024													-0.089886	0.008099	-0.127934	-0.179178	0.378997	-0.907886	0.012350	-0.921881	-0.387276	-0.983739	-0.080604	0.160500
6	688637691													-0.179604	0.162739	-0.076577	-0.178229	0.379250	-0.907967	0.011648	-0.921863	-0.387340	-0.983920	-0.079612	0.159885
7	688654358													-0.148000	0.332453	-0.002292	-0.177114	0.378562	-0.908472	0.011981	-0.922168	-0.386604	-0.984117	-0.079357	0.158794
8	688671025													-0.020722	0.378548	0.024407	-0.176523	0.377603	-0.908986	0.013159	-0.922500	-0.385772	-0.984208	-0.080059	0.157874
9	688687692													0.111407	0.380636	-0.019150	-0.176630	0.376251	-0.909526	0.014621	-0.922949	-0.384644	-0.984169	-0.081238	0.157519
10	688704359													0.178087	0.323409	-0.097049	-0.177234	0.374586	-0.910095	0.015995	-0.923517	-0.383225	-0.984039	-0.082478	0.157687
11	688721026													0.156713	0.213598	-0.102787	-0.178043	0.373043	-0.910571	0.017093	-0.924043	-0.381905	-0.983874	-0.083560	0.158143
12	688737693													0.155942	0.142974	-0.090219	-0.178770	0.371485	-0.911065	0.017862	-0.924604	-0.380511	-0.983729	-0.084298	0.158656
13	688754360													0.151831	0.070953	-0.102061	-0.179456	0.369691	-0.911660	0.018317	-0.925288	-0.378823	-0.983595	-0.084681	0.159277
14	688771027													0.152660	0.008540	-0.061401	-0.180147	0.367929	-0.912236	0.018434	-0.925983	-0.377114	-0.983467	-0.084752	0.160031
15	688787694													0.173632	-0.000164	-0.039957	-0.180836	0.366349	-0.912736	0.018141	-0.926636	-0.375522	-0.983346	-0.084466	0.160923
16	688804361													0.231178	0.000150	-0.028098	-0.181734	0.364846	-0.913159	0.017598	-0.927268	-0.373985	-0.983190	-0.084036	0.162095
17	688821028													0.306633	-0.015306	-0.065942	-0.183003	0.363250	-0.913542	0.016847	-0.927940	-0.372350	-0.982968	-0.083532	0.163696
18	688837695													0.358386	-0.028991	-0.101245	-0.184594	0.362011	-0.913714	0.016000	-0.928460	-0.371086	-0.982685	-0.083120	0.165596
19	688854362													0.350309	-0.048169	-0.104917	-0.186242	0.360992	-0.913782	0.015013	-0.928901	-0.370025	-0.982389	-0.082632	0.167581
20	688871029													0.350032	-0.074289	-0.138582	-0.187782	0.360349	-0.913721	0.013918	-0.929200	-0.369314	-0.982112	-0.082067	0.169472
21	688887696													0.314144	-0.138557	-0.141479	-0.189213	0.360024	-0.913554	0.012633	-0.929391	-0.368882	-0.981855	-0.081338	0.171305
22	688904363													0.289784	-0.184331	-0.128786	-0.190570	0.360138	-0.913227	0.011182	-0.929419	-0.368856	-0.981610	-0.080505	0.173093
23	688921030													0.216091	-0.208969	-0.129045	-0.191878	0.360705	-0.912729	0.009564	-0.929279	-0.369256	-0.981372	-0.079581	0.174859
24	688937697													0.107455	-0.186202	-0.104875	-0.193108	0.361725	-0.912066	0.007857	-0.928963	-0.370090	-0.981146	-0.078633	0.176548
25	688954364													0.029474	-0.157610	-0.071490	-0.194184	0.363174	-0.911261	0.006157	-0.928474	-0.371346	-0.980946	-0.077720	0.178059
26	688971031													0.023616	-0.143790	-0.056951	-0.195201	0.364634	-0.910460	0.004542	-0.927972	-0.372621	-0.980753	-0.076872	0.179485
27	688987698													0.009599	-0.114872	-0.043018	-0.196305	0.365764	-0.909770	0.003064	-0.927589	-0.373590	-0.980538	-0.076125	0.180970
28	689004365													0.010030	-0.109525	-0.024534	-0.197462	0.366328	-0.909292	0.001731	-0.927424	-0.374008	-0.980309	-0.075426	0.182497
29	689021032													-0.042229	-0.097248	-0.049054	-0.198699	0.366695	-0.908875	0.000323	-0.927342	-0.374216	-0.980061	-0.074649	0.184143
30	689037699													-0.087323	-0.104497	-0.069901	-0.199854	0.367278	-0.908386	-0.001105	-0.927173	-0.374631	-0.979825	-0.073868	0.185705
31	689054366													-0.129709	-0.086494	-0.089891	-0.200864	0.368081	-0.907838	-0.002546	-0.926919	-0.375254	-0.979616	-0.073064	0.187122
32	689071033													-0.157590	-0.097976	-0.087478	-0.201765	0.368802	-0.907346	-0.003933	-0.926695	-0.375793	-0.979426	-0.072253	0.188425
33	689087700													-0.161411	-0.047404	-0.054064	-0.202525	0.369615	-0.906845	-0.005338	-0.926438	-0.376409	-0.979263	-0.071392	0.189600
34	689104367													-0.226443	-0.061447	-0.052950	-0.203051	0.370439	-0.906391	-0.006742	-0.926182	-0.377017	-0.979145	-0.070443	0.190559
35	689121034													-0.247138	-0.053361	-0.032078	-0.203321	0.371252	-0.905998	-0.008150	-0.925936	-0.377593	-0.979078	-0.069389	0.191288
36	689137701													-0.247171	-0.048477	-0.009024	-0.203437	0.371929	-0.905694	-0.009553	-0.925749	-0.378018	-0.979041	-0.068251	0.191885
37	689154368													-0.162803	-0.025379	0.003566	-0.203602	0.372382	-0.905471	-0.010963	-0.925652	-0.378216	-0.978992	-0.067079	0.192547
38	689171035													-0.107992	-0.026717	0.012582	-0.203797	0.372924	-0.905204	-0.012412	-0.925519	-0.378499	-0.978934	-0.065902	0.193247
39	689187702													-0.086884	-0.049622	-0.047362	-0.203914	0.373623	-0.904889	-0.013888	-0.925321	-0.378930	-0.978890	-0.064702	0.193875
40	689204369													-0.078630	-0.076706	-0.141466	-0.203842	0.374463	-0.904558	-0.015340	-0.925066	-0.379496	-0.978884	-0.063481	0.194312
41	689221036													-0.134649	-0.097587	-0.132357	-0.203559	0.375312	-0.904270	-0.016764	-0.924809	-0.380063	-0.978919	-0.062206	0.194545
42	689237703													-0.197118	-0.085718	-0.092010	-0.203016	0.376230	-0.904011	-0.018305	-0.924534	-0.380661	-0.979004	-0.060732	0.194582
43	689254370													-0.228276	-0.080556	-0.050415	-0.202225	0.377087	-0.903831	-0.019876	-0.924289	-0.381176	-0.979137	-0.059119	0.194410
44	689271037													-0.222512	-0.047907	-0.042994	-0.201312	0.377728	-0.903767	-0.021456	-0.924135	-0.381462	-0.979292	-0.057402	0.194144
45	689287704													-0.132817	-0.014539	-0.070471	-0.200411	0.378211	-0.903765	-0.023010	-0.924043	-0.381595	-0.979442	-0.055680	0.193891
46	689304371													-0.046250	0.032812	-0.072265	-0.199671	0.378564	-0.903781	-0.024598	-0.924001	-0.381599	-0.979554	-0.053963	0.193808
47	689321038													-0.036746	0.043204	-0.051455	-0.199040	0.378871	-0.903792	-0.026248	-0.923975	-0.381551	-0.979640	-0.052221	0.193852
48	689337705													-0.102863	0.066859	-0.068080	-0.198228	0.379013	-0.903911	-0.027896	-0.924019	-0.381327	-0.979759	-0.050374	0.193740
49	689354372													-0.166951	0.054910	-0.065112	-0.197099	0.378827	-0.904236	-0.029480	-0.924201	-0.380766	-0.979940	-0.048392	0.193327
50	689371039													-0.195498	0.038832	-0.035829	-0.195822	0.378503	-0.904649	-0.030990	-0.924437	-0.380074	-0.980150	-0.046392	0.192755
51	689387706													-0.237255	-0.007343	0.026531	-0.194475	0.378138	-0.905092	-0.032572	-0.924689	-0.379327	-0.980367	-0.044289	0.192146
52	689404373													-0.258172	-0.019268	0.003602	-0.192888	0.377676	-0.905624	-0.034241	-0.924985	-0.378457	-0.980623	-0.041991	0.191351
53	689421040													-0.291669	-0.018071	-0.046984	-0.190956	0.376910	-0.906352	-0.035878	-0.925406	-0.377275	-0.980943	-0.039525	0.190234
54	689437707													-0.347674	-0.044908	-0.044302	-0.188713	0.375766	-0.907297	-0.037387	-0.925976	-0.375726	-0.981320	-0.036983	0.188793
55	689454374													-0.373291	-0.077931	0.021175	-0.186156	0.374412	-0.908384	-0.038773	-0.926624	-0.373984	-0.981755	-0.034399	0.187013
56	689471041													-0.411362	-0.151979	0.104259	-0.183388	0.373133	-0.909473	-0.040135	-0.927233	-0.372327	-0.982221	-0.031779	0.185019
57	689487708													-0.500631	-0.178895	0.108762	-0.180085	0.371868	-0.910650	-0.041490	-0.927833	-0.370680	-0.982776	-0.028971	0.182517
58	689504375													-0.592354	-0.213022	0.115147	-0.176053	0.370282	-0.912084	-0.042766	-0.928558	-0.368715	-0.983451	-0.025907	0.179311
59	689521042													-0.739502	-0.231744	0.168187	-0.171207	0.367978	-0.913937	-0.044066	-0.929565	-0.366016	-0.984249	-0.022391	0.175364
60	689537709													-0.951496	-0.279941	0.233493	-0.165354	0.364661	-0.916341	-0.045408	-0.930961	-0.362285	-0.985188	-0.018296	0.170497
61	689554376													-1.103321	-0.302208	0.281151	-0.158438	0.360153	-0.919341	-0.046695	-0.932793	-0.357375	-0.986264	-0.013694	0.164607
62	689571043													-1.300849	-0.441437	0.336542	-0.150318	0.354330	-0.922960	-0.047833	-0.935081	-0.351193	-0.987480	-0.008643	0.157508
63	689587710													-1.483146	-0.502605	0.262472	-0.140620	0.347238	-0.927174	-0.048732	-0.937772	-0.343816	-0.988864	-0.003164	0.148791
64	689604377													-1.599959	-0.508758	0.195198	-0.129706	0.339061	-0.931780	-0.049357	-0.940761	-0.335459	-0.990323	0.002479	0.138757
65	689621044													-1.606003	-0.554914	0.264758	-0.117923	0.330520	-0.936403	-0.049821	-0.943764	-0.326844	-0.991772	0.008110	0.127759
66	689637711													-1.493855	-0.553296	0.301388	-0.105439	0.322206	-0.940780	-0.050202	-0.946571	-0.318563	-0.993158	0.013640	0.115982
67	689654378													-1.368101	-0.483550	0.283425	-0.092201	0.314421	-0.944796	-0.050434	-0.949094	-0.310930	-0.994462	0.018982	0.103365
68	689671045													-1.210615	-0.468903	0.377924	-0.078458	0.307215	-0.948401	-0.050479	-0.951337	-0.303990	-0.995639	0.024024	0.090148
69	689687712													-0.893343	-0.225757	0.529593	-0.064394	0.300363	-0.951649	-0.050369	-0.953391	-0.297505	-0.996653	0.028776	0.076521
70	689704379													-0.511795	0.007475	0.808178	-0.050964	0.294052	-0.954430	-0.050159	-0.955219	-0.291617	-0.997440	0.033011	0.063431
71	689721046													-0.141936	0.118363	0.990577	-0.038326	0.288189	-0.956806	-0.049920	-0.956866	-0.286208	-0.998018	0.036794	0.051059
72	689737713													0.206296	0.186439	0.849464	-0.026232	0.282811	-0.958817	-0.049764	-0.958327	-0.281306	-0.998416	0.040336	0.039213
73	689754380													0.563679	-0.011861	0.680988	-0.014747	0.277547	-0.960599	-0.049881	-0.959711	-0.276525	-0.998646	0.043838	0.027997
74	689771047													0.798568	-0.409862	0.808994	-0.004085	0.271986	-0.962293	-0.051101	-0.961100	-0.271432	-0.998685	0.048065	0.017825
75	689787714													0.837518	-0.670348	1.101529	0.006171	0.265806	-0.964007	-0.054250	-0.962516	-0.265742	-0.998508	0.053937	0.008480
76	689804381													0.662741	-0.621442	0.907220	0.017240	0.258735	-0.965794	-0.059113	-0.963984	-0.259306	-0.998102	0.061562	-0.001325
77	689821048													-0.074277	-0.199120	0.084590	0.030003	0.249841	-0.967822	-0.063527	-0.965824	-0.251294	-0.997529	0.069023	-0.013106
78	689837715													-0.859894	0.125436	-0.371719	0.044570	0.237038	-0.970477	-0.066404	-0.968591	-0.239627	-0.996797	0.075124	-0.027430
79	689854382													-0.739361	0.456985	-0.549001	0.059384	0.222302	-0.973168	-0.068173	-0.971709	-0.226129	-0.995905	0.079772	-0.042549
80	689871049													-0.388215	0.626912	-0.618939	0.072967	0.208011	-0.975401	-0.069486	-0.974571	-0.213032	-0.994911	0.083321	-0.056657
81	689887716													-0.122376	0.541308	-0.401372	0.086968	0.193917	-0.977155	-0.070426	-0.977221	-0.200198	-0.993719	0.086228	-0.071330
82	689904383													0.256846	0.461852	-0.316349	0.101954	0.178729	-0.978602	-0.070890	-0.979921	-0.186356	-0.992260	0.088373	-0.087237
83	689921050													0.907038	0.508770	-0.484728	0.114861	0.164367	-0.979689	-0.070644	-0.982368	-0.173099	-0.990866	0.089091	-0.101224
84	689937717													1.189456	0.488781	-0.355813	0.125519	0.152945	-0.980231	-0.069212	-0.984288	-0.162441	-0.989674	0.088233	-0.112961
85	689954384													1.482406	0.134131	-0.283961	0.135081	0.144261	-0.980276	-0.066655	-0.985780	-0.154256	-0.988590	0.086178	-0.123544
86	689971051													1.391035	-0.124476	-0.522057	0.144820	0.137394	-0.979873	-0.062496	-0.987065	-0.147639	-0.987482	0.082619	-0.134360
87	689987718													1.186450	-0.081422	-0.527790	0.154203	0.131666	-0.979227	-0.057480	-0.988207	-0.141925	-0.986366	0.078171	-0.144816
88	690004385													0.820819	0.194303	-0.431761	0.164021	0.126454	-0.978318	-0.052399	-0.989233	-0.136650	-0.985064	0.073677	-0.155629
89	690021052													0.866828	0.333251	-0.439372	0.173942	0.121482	-0.977234	-0.047248	-0.990189	-0.131502	-0.983622	0.069046	-0.166496
90	690037719													1.182651	0.395225	-0.801594	0.182753	0.119900	-0.975820	-0.041232	-0.990728	-0.129454	-0.982294	0.063893	-0.176114
91	690054386													1.215957	0.432498	-0.941059	0.189995	0.122184	-0.974152	-0.033432	-0.990845	-0.130798	-0.981216	0.057419	-0.184171
92	690071053													1.141171	0.233227	-1.101070	0.196034	0.127453	-0.972279	-0.023915	-0.990601	-0.134676	-0.980306	0.049653	-0.191143
93	690087720													1.013195	0.212646	-1.242821	0.200813	0.135031	-0.970279	-0.012920	-0.990003	-0.140450	-0.979544	0.040740	-0.197061
94	690104387													0.789421	0.431081	-1.203088	0.203776	0.144652	-0.968272	-0.000764	-0.989001	-0.147910	-0.979017	0.030880	-0.201424
95	690121054													0.438882	0.731454	-0.939244	0.204740	0.154951	-0.966474	0.012144	-0.987716	-0.155784	-0.978741	0.020159	-0.204106
96	690137721													0.168690	0.765963	-0.642458	0.203684	0.163912	-0.965218	0.025156	-0.986436	-0.162207	-0.978713	0.008758	-0.205045
97	690154388													-0.126203	0.521440	-0.462465	0.199662	0.170915	-0.964844	0.037819	-0.985281	-0.166709	-0.979135	-0.003204	-0.203187
98	690171055													-0.628337	0.193005	-0.460477	0.192974	0.175401	-0.965399	0.050479	-0.984364	-0.168756	-0.979905	-0.016166	-0.198811
99	690187722													-1.217018	-0.030894	-0.558097	0.184316	0.175789	-0.967019	0.062356	-0.983985	-0.166988	-0.980887	-0.029521	-0.192326
100	690204389													-1.863498	-0.315065	-0.870540	0.173601	0.173121	-0.969480	0.072995	-0.983982	-0.162640	-0.982107	-0.042533	-0.183457
101	690221056													-2.334657	-0.644831	-1.007898	0.161295	0.168878	-0.972350	0.082167	-0.984128	-0.157293	-0.983480	-0.054524	-0.172611
102	690237723													-2.058698	-1.007050	-0.669629	0.149591	0.164689	-0.974936	0.089486	-0.984239	-0.152530	-0.984690	-0.064426	-0.161971
103	690254390													-1.580795	-1.291329	0.083892	0.141747	0.160059	-0.976877	0.094840	-0.984498	-0.147546	-0.985349	-0.071733	-0.154730
104	690271057													-0.816281	-1.667284	0.381084	0.138777	0.155833	-0.977986	0.098424	-0.984823	-0.142956	-0.985421	-0.076418	-0.152009
105	690287724													-1.155176	-1.736398	0.073803	0.141037	0.151234	-0.978385	0.100437	-0.985350	-0.137832	-0.984896	-0.078826	-0.154161
106	690304391													-1.401197	-1.690819	0.054199	0.143059	0.144638	-0.979088	0.100613	-0.986264	-0.130997	-0.984587	-0.079769	-0.155647
107	690321058													-1.667031	-1.897824	1.597485	0.145747	0.134453	-0.980143	0.098161	-0.987798	-0.120907	-0.984440	-0.078590	-0.157166
108	690337725													-1.605922	-2.575641	2.359555	0.150307	0.118247	-0.981542	0.092219	-0.990170	-0.105164	-0.984329	-0.074710	-0.159734
109	690354392													-0.637132	-2.518335	2.405191	0.148562	0.103666	-0.983454	0.084690	-0.992170	-0.091792	-0.985270	-0.069652	-0.156179
110	690371059													-1.323659	-1.515373	2.305143	0.147086	0.093685	-0.984677	0.078515	-0.993469	-0.082793	-0.986003	-0.065135	-0.153481
111	690387726													-1.304218	0.557530	0.966085	0.145900	0.089144	-0.985275	0.078023	-0.993867	-0.078367	-0.986218	-0.065441	-0.151961
112	690404393													0.344237	1.067121	-0.161112	0.138047	0.091438	-0.986196	0.081693	-0.993387	-0.080670	-0.987051	-0.069429	-0.144604
113	690421060													0.978542	-0.106223	-0.699501	0.126743	0.102053	-0.986672	0.086501	-0.992041	-0.091497	-0.988157	-0.073751	-0.134562
114	690437727													1.184472	-0.857502	-0.975322	0.114919	0.119517	-0.986159	0.090969	-0.989831	-0.109361	-0.989201	-0.077142	-0.124623
115	690454394													1.181476	-0.824938	-0.768638	0.104474	0.139032	-0.984762	0.094183	-0.987113	-0.129373	-0.990058	-0.079231	-0.116222
116	690471061													0.656932	-0.316485	-0.489148	0.097118	0.153520	-0.983361	0.095867	-0.984881	-0.144289	-0.990645	-0.080259	-0.110368
117	690487728													0.406176	0.369861	-0.314011	0.091126	0.160164	-0.982875	0.096572	-0.983751	-0.151353	-0.991146	-0.081126	-0.105112
118	690504395													0.336366	0.884298	-0.003681	0.085025	0.161187	-0.983255	0.096942	-0.983484	-0.152842	-0.991652	-0.082323	-0.099246
119	690521062													0.064424	0.749240	0.236437	0.079492	0.158751	-0.984113	0.097094	-0.983776	-0.150854	-0.992096	-0.083560	-0.093616
120	690537729													0.091282	0.370535	0.283505	0.074310	0.154769	-0.985152	0.096953	-0.984325	-0.147326	-0.992511	-0.084566	-0.088151
121	690554396													0.233889	0.083376	0.234321	0.068428	0.150506	-0.986238	0.096890	-0.984885	-0.143577	-0.992940	-0.085732	-0.081977
122	690571063													0.490406	-0.018790	0.324942	0.061341	0.147359	-0.987179	0.097561	-0.985191	-0.141000	-0.993337	-0.087661	-0.074809
123	690587730													0.597963	-0.198214	0.370422	0.053498	0.147255	-0.987651	0.099562	-0.984925	-0.141455	-0.993592	-0.090765	-0.067352
124	690604397													0.370134	-0.331355	0.144220	0.046068	0.150363	-0.987557	0.102154	-0.984133	-0.145076	-0.993701	-0.094200	-0.060697
125	690621064													0.196631	-0.247424	0.078523	0.039032	0.156049	-0.986978	0.104477	-0.982954	-0.151281	-0.993761	-0.097211	-0.054670
126	690637731													0.168193	-0.075713	-0.019370	0.032633	0.162922	-0.986099	0.106586	-0.981566	-0.158646	-0.993768	-0.099927	-0.049397
127	690654398													0.411398	0.080836	-0.164152	0.026385	0.170363	-0.985028	0.108777	-0.980009	-0.166581	-0.993716	-0.102753	-0.044389
128	690671065													0.480220	0.043730	-0.280808	0.021118	0.177300	-0.983930	0.110914	-0.978490	-0.173939	-0.993606	-0.105458	-0.040329
129	690687732													0.805404	0.154238	-0.325557	0.016851	0.183093	-0.982951	0.113073	-0.977133	-0.180071	-0.993444	-0.108111	-0.037168
130	690704399													0.877282	0.309354	-0.334087	0.012055	0.187381	-0.982213	0.115204	-0.976004	-0.184782	-0.993269	-0.110927	-0.033352
131	690721066													1.109473	0.494930	-0.179443	0.006013	0.190333	-0.981701	0.116914	-0.975120	-0.188340	-0.993124	-0.113643	-0.028116
132	690737733													1.219593	0.541278	0.023078	-0.000496	0.191626	-0.981468	0.118270	-0.974568	-0.190339	-0.992981	-0.116173	-0.022180
133	690754400													1.453321	0.592972	-0.074893	-0.007020	0.191635	-0.981441	0.119454	-0.974277	-0.191091	-0.992815	-0.118578	-0.016052
134	690771067													1.024558	0.252328	-0.213656	-0.014359	0.190612	-0.981561	0.121010	-0.974115	-0.190936	-0.992547	-0.121520	-0.009079
135	690787734													0.336319	-0.073304	-0.269574	-0.020620	0.187151	-0.982115	0.122951	-0.974393	-0.188260	-0.992198	-0.124634	-0.002919
136	690804401													-0.126226	-0.200191	-0.146664	-0.026333	0.182383	-0.982875	0.124974	-0.974902	-0.184251	-0.991811	-0.127685	0.002879
137	690821068													-0.440899	-0.445991	-0.014592	-0.032581	0.177805	-0.983526	0.126920	-0.975346	-0.180531	-0.991378	-0.130711	0.009210
138	690837735													-0.520714	-0.726404	0.131057	-0.039059	0.174242	-0.983928	0.128855	-0.975580	-0.177879	-0.990894	-0.133732	0.015653
139	690854402													-0.494819	-0.878946	0.130705	-0.045236	0.172234	-0.984017	0.130616	-0.975549	-0.176756	-0.990400	-0.136524	0.021634
140	690871069													-0.330888	-0.865623	-0.100852	-0.051374	0.172466	-0.983675	0.132174	-0.975137	-0.177872	-0.989894	-0.139154	0.027301
141	690887736													-0.297179	-0.694033	-0.103629	-0.057657	0.174824	-0.982910	0.133590	-0.974343	-0.181136	-0.989358	-0.141750	0.032823
142	690904403													-0.094238	-0.319997	0.086059	-0.064191	0.178470	-0.981849	0.134632	-0.973335	-0.185724	-0.988814	-0.144110	0.038452
143	690921070													0.342451	-0.058992	0.033139	-0.072054	0.183772	-0.980325	0.135436	-0.971973	-0.192161	-0.988163	-0.146617	0.045146
144	690937737													0.384885	-0.130330	-0.168983	-0.080303	0.190128	-0.978470	0.136549	-0.970287	-0.199745	-0.987373	-0.149649	0.051955
145	690954404													0.611254	0.162960	-0.226940	-0.088929	0.197465	-0.976268	0.137329	-0.968360	-0.208375	-0.986525	-0.152601	0.058998
146	690971071													0.671129	0.359158	-0.148842	-0.098680	0.205895	-0.973586	0.137586	-0.966142	-0.218266	-0.985562	-0.155490	0.067011
147	690987738													0.560417	0.318104	-0.114388	-0.108650	0.214195	-0.970729	0.137599	-0.963870	-0.228083	-0.984511	-0.158352	0.075251
148	691004405													0.264542	0.500078	-0.069527	-0.118612	0.221581	-0.967901	0.137517	-0.961723	-0.237019	-0.983372	-0.161216	0.083601
149	691021072													0.045198	0.803522	0.147942	-0.128242	0.226825	-0.965456	0.137708	-0.959990	-0.243833	-0.982136	-0.164221	0.091875
150	691037739													-0.074508	1.069879	0.179885	-0.137748	0.229139	-0.963598	0.138221	-0.958905	-0.247782	-0.980775	-0.167321	0.100416
151	691054406													-0.093520	1.205307	0.039169	-0.147710	0.229175	-0.962113	0.138865	-0.958342	-0.249596	-0.979234	-0.170471	0.109732
152	691071073													-0.080856	1.130062	0.055169	-0.158473	0.227679	-0.960754	0.139626	-0.958104	-0.250082	-0.977441	-0.173778	0.120044
153	691087740													-0.042168	0.736977	0.037005	-0.169763	0.225044	-0.959445	0.140503	-0.958104	-0.249590	-0.975417	-0.177176	0.131032
154	691104407													0.073081	0.236815	-0.104037	-0.181990	0.223218	-0.957629	0.140864	-0.957929	-0.250058	-0.973158	-0.180403	0.142890
155	691121074													-0.008630	-0.203663	-0.051636	-0.195602	0.224531	-0.954634	0.140374	-0.957003	-0.253850	-0.970585	-0.183659	0.155673
156	691137741													-0.163741	-0.686476	-0.322554	-0.211142	0.229729	-0.950076	0.139042	-0.955045	-0.261831	-0.967516	-0.187384	0.169708
157	691154408													-0.652641	-1.059751	-0.431244	-0.228469	0.239320	-0.943678	0.136824	-0.951801	-0.274506	-0.963889	-0.191834	0.184713
158	691171075													-1.249770	-1.098447	-0.345469	-0.247237	0.253449	-0.935221	0.132912	-0.947190	-0.291830	-0.959796	-0.196453	0.200494
159	691187742													-1.840179	-0.788945	0.068093	-0.266682	0.271221	-0.924835	0.128459	-0.941022	-0.313010	-0.955186	-0.202277	0.216113
160	691204409													-2.388125	-0.621169	-0.193733	-0.285893	0.290006	-0.913324	0.124354	-0.933818	-0.335440	-0.950158	-0.209476	0.230909
161	691221076													-2.827465	-0.140240	0.168405	-0.304560	0.306033	-0.901991	0.120572	-0.926974	-0.355221	-0.944831	-0.216941	0.245420
162	691237743													-2.805104	0.222078	0.318218	-0.320736	0.316006	-0.892899	0.118878	-0.921818	-0.368943	-0.939679	-0.224479	0.258095
163	691254410													-2.129951	0.515056	0.174011	-0.332985	0.320531	-0.886781	0.118713	-0.918717	-0.376651	-0.935429	-0.230692	0.267868
164	691271077													-1.287062	0.496730	0.048721	-0.341337	0.322644	-0.882831	0.119018	-0.916845	-0.381092	-0.932376	-0.235153	0.274552
165	691287744													-0.743351	0.465742	-0.117789	-0.347479	0.323829	-0.879996	0.119468	-0.915537	-0.384082	-0.930046	-0.238592	0.279443
166	691304411													-0.571655	0.473792	-0.313985	-0.353126	0.325335	-0.877188	0.119894	-0.914125	-0.387300	-0.927862	-0.241935	0.283796
167	691321078													-0.059952	1.002548	-0.138789	-0.359042	0.328965	-0.873425	0.120132	-0.911751	-0.392783	-0.925558	-0.245952	0.287838
168	691337745													0.678130	1.148991	0.300219	-0.366889	0.335838	-0.867529	0.119457	-0.907832	-0.401960	-0.922563	-0.251107	0.292955
169	691354412													0.508584	-0.125847	0.188677	-0.375833	0.344701	-0.860192	0.118078	-0.902865	-0.413391	-0.919134	-0.256936	0.298625
170	691371079													0.156348	-0.836657	-0.614162	-0.385012	0.352643	-0.852883	0.117210	-0.897955	-0.424191	-0.915438	-0.263285	0.304390
171	691387746													-0.007275	-0.687682	-0.815686	-0.395727	0.360528	-0.844641	0.115869	-0.892770	-0.435358	-0.911029	-0.270150	0.311520
172	691404413													-0.406525	-0.417589	-0.648619	-0.407004	0.369057	-0.835551	0.113490	-0.887224	-0.447162	-0.906349	-0.276824	0.319219
173	691421080													-0.758407	-0.493980	-0.473008	-0.417622	0.377582	-0.826453	0.110305	-0.881772	-0.458596	-0.901901	-0.282682	0.326598
174	691437747													-1.236449	-0.590405	-0.395512	-0.427162	0.385579	-0.817840	0.106363	-0.876806	-0.468933	-0.897897	-0.287298	0.333527
175	691454414													-1.535275	-0.421047	-0.404935	-0.435749	0.392541	-0.809960	0.102089	-0.872525	-0.477785	-0.894260	-0.290882	0.340128
176	691471081													-1.790154	-0.077629	-0.267010	-0.443572	0.398406	-0.802818	0.097639	-0.868950	-0.485172	-0.890904	-0.293595	0.346542
177	691487748													-1.821993	0.165961	0.082450	-0.451319	0.403340	-0.796008	0.093186	-0.865844	-0.491560	-0.887484	-0.296027	0.353186
178	691504415													-1.744943	0.156696	0.400886	-0.459401	0.407973	-0.788992	0.088627	-0.862789	-0.497736	-0.883796	-0.298586	0.360209
179	691521082													-1.749181	0.053625	0.451734	-0.467770	0.413062	-0.781390	0.083720	-0.859393	-0.504415	-0.879876	-0.301368	0.367417
180	691537749													-1.992381	-0.014678	0.416144	-0.476060	0.419053	-0.773150	0.078397	-0.855443	-0.511929	-0.875911	-0.304321	0.374390
181	691554416													-2.277541	-0.195191	0.146373	-0.483825	0.426152	-0.764401	0.072640	-0.850868	-0.520334	-0.872145	-0.307276	0.380715
182	691571083													-2.681489	-0.421818	-0.035451	-0.490664	0.434958	-0.755023	0.066195	-0.845389	-0.530034	-0.868831	-0.310047	0.386010
183	691587750													-3.114047	-0.620790	-0.031225	-0.496405	0.445602	-0.744997	0.059297	-0.838791	-0.541214	-0.866063	-0.312838	0.389957
184	691604417													-3.538266	-0.603481	0.527825	-0.501224	0.457806	-0.734295	0.052091	-0.831081	-0.553706	-0.863748	-0.315781	0.392710
185	691621084													-3.824613	-0.690427	1.133400	-0.504787	0.468512	-0.725042	0.045477	-0.824305	-0.564317	-0.862045	-0.317832	0.394792
186	691637751													-4.244208	-1.041528	0.924358	-0.506019	0.479349	-0.717056	0.039708	-0.817519	-0.574531	-0.861608	-0.319197	0.394646
187	691654418													-4.737266	-1.393459	0.789575	-0.503987	0.489956	-0.711295	0.034752	-0.811363	-0.583508	-0.863012	-0.318799	0.391890
188	691671085													-5.200788	-1.442593	0.620690	-0.497302	0.500848	-0.708408	0.029801	-0.806192	-0.590903	-0.867066	-0.314969	0.385995
189	691687752													-5.335015	-1.657020	0.573515	-0.485313	0.511365	-0.709209	0.025257	-0.802598	-0.595985	-0.873976	-0.307151	0.376596
190	691704419													-5.375688	-1.998849	0.702902	-0.468106	0.522563	-0.712604	0.020711	-0.799703	-0.600039	-0.883430	-0.295640	0.363523
191	691721086													-5.861921	-2.818668	0.174901	-0.442856	0.532232	-0.721532	0.017209	-0.799554	-0.600347	-0.896428	-0.278284	0.344928
192	691737753													-4.957936	-3.683846	-1.033985	-0.408177	0.537135	-0.738158	0.016452	-0.804124	-0.594234	-0.912755	-0.254696	0.319388
193	691754420													-4.182361	-3.025196	-0.333264	-0.373565	0.534690	-0.757995	0.016884	-0.813099	-0.581881	-0.927450	-0.230169	0.294717
194	691771087													-3.612410	-2.445300	-0.062667	-0.334086	0.526689	-0.781656	0.018472	-0.825487	-0.564118	-0.942362	-0.202903	0.266054
195	691787754													-3.172432	-0.420566	0.710192	-0.294695	0.516366	-0.804065	0.019479	-0.838011	-0.545305	-0.955393	-0.176361	0.236900
196	691804421													-1.400570	1.431005	1.915646	-0.256086	0.506141	-0.823554	0.018624	-0.849222	-0.527708	-0.966475	-0.150477	0.208047
197	691821088													0.681351	2.063079	2.907291	-0.218062	0.497170	-0.839804	0.016180	-0.858553	-0.512470	-0.975801	-0.125338	0.179174
198	691837755													2.102239	1.654104	3.212058	-0.179309	0.487740	-0.854376	0.015448	-0.866948	-0.498159	-0.983672	-0.102523	0.147917
199	691854422													2.341694	1.485361	2.783539	-0.138215	0.475272	-0.868915	0.017636	-0.876015	-0.481961	-0.990245	-0.081939	0.112696
200	691871089													2.343279	1.995600	2.294849	-0.095932	0.460149	-0.882644	0.021242	-0.885585	-0.463991	-0.995161	-0.063260	0.075181
201	691887756													2.868571	2.335174	2.237007	-0.055524	0.445132	-0.893742	0.025737	-0.894187	-0.446952	-0.998126	-0.047819	0.038192
202	691904423													2.959687	1.879965	2.229652	-0.014068	0.430046	-0.902698	0.031163	-0.902160	-0.430275	-0.999415	-0.034184	-0.000710
203	691921090													2.496074	1.556808	1.977906	0.029642	0.412625	-0.910419	0.036596	-0.910656	-0.411541	-0.998890	-0.021119	-0.042094
204	691937757													2.844176	1.547341	1.728257	0.072199	0.395003	-0.915838	0.040460	-0.918639	-0.393022	-0.996569	-0.008679	-0.082306
205	691954424													3.340502	2.005807	0.819869	0.110692	0.379309	-0.918625	0.042953	-0.925267	-0.376876	-0.992926	0.002260	-0.118712
206	691971091													4.154138	2.282177	0.061237	0.145908	0.366031	-0.919093	0.044702	-0.930526	-0.363487	-0.988288	0.011951	-0.152134
207	691987758													4.223947	2.219643	-0.966976	0.178265	0.354577	-0.917876	0.045879	-0.934798	-0.352203	-0.982912	0.020674	-0.182910
208	692004425													4.049564	2.382623	-1.988564	0.208352	0.341787	-0.916390	0.046509	-0.939355	-0.339778	-0.976947	0.028173	-0.211613
209	692021092													4.390379	1.976396	-2.756268	0.234797	0.326079	-0.915720	0.045673	-0.944716	-0.324693	-0.970971	0.034413	-0.236710
210	692037759													4.472349	1.780678	-3.415227	0.257555	0.307668	-0.915973	0.043012	-0.950664	-0.307226	-0.965306	0.039730	-0.258082
211	692054426													4.377137	1.341738	-4.191313	0.277201	0.287236	-0.916873	0.039145	-0.956852	-0.287926	-0.960014	0.043923	-0.276484
212	692071093													4.335929	1.087676	-4.368467	0.292308	0.267406	-0.918177	0.034143	-0.962417	-0.269421	-0.955714	0.047405	-0.290453
213	692087760													3.979341	0.699200	-4.662520	0.303841	0.249910	-0.919362	0.029119	-0.966968	-0.253228	-0.952278	0.050170	-0.301082
214	692104427													3.323670	0.384474	-4.635789	0.312788	0.235908	-0.920060	0.025196	-0.970385	-0.240246	-0.949489	0.051965	-0.309469
215	692121094													2.672334	0.017156	-4.418580	0.319552	0.225973	-0.920230	0.023499	-0.972739	-0.230707	-0.947277	0.052098	-0.316151
216	692137761													2.056708	-0.475402	-3.867100	0.324790	0.219967	-0.919851	0.024816	-0.974225	-0.224208	-0.945461	0.049993	-0.321877
217	692154428													1.570230	-0.686481	-3.225773	0.328041	0.216315	-0.919563	0.028776	-0.975266	-0.219153	-0.944225	0.045430	-0.326152
218	692171095													1.208527	-0.541005	-2.504914	0.328392	0.214606	-0.919838	0.035033	-0.975944	-0.215189	-0.943892	0.038441	-0.328011
219	692187762													0.773029	-0.245241	-1.860950	0.325756	0.214916	-0.920703	0.043167	-0.976187	-0.212595	-0.944468	0.029509	-0.327276
220	692204429													0.271051	-0.422419	-0.660699	0.319737	0.216775	-0.922375	0.051771	-0.976020	-0.211437	-0.946091	0.019852	-0.323293
221	692221096													-0.857400	-1.115665	1.027138	0.312344	0.216943	-0.924866	0.057739	-0.976110	-0.209464	-0.948213	0.012024	-0.317409
222	692237763													-2.676820	-1.891159	2.690373	0.306580	0.211963	-0.927944	0.059124	-0.977248	-0.203692	-0.950007	0.007584	-0.312137
223	692254430													-4.672518	-2.227237	3.817029	0.303616	0.199153	-0.931749	0.055907	-0.979950	-0.191238	-0.951153	0.005972	-0.308663
224	692271097													-5.784414	-1.631828	3.930818	0.302921	0.179234	-0.936010	0.049390	-0.983788	-0.172399	-0.951735	0.005994	-0.306862
225	692287764													-5.449575	-1.188785	3.596876	0.304311	0.156648	-0.939604	0.042250	-0.987635	-0.150972	-0.951635	0.006244	-0.307167
226	692304431													-4.292396	-1.389354	3.140650	0.310282	0.135653	-0.940916	0.036109	-0.990734	-0.130928	-0.949959	0.006649	-0.312305
227	692321098													-2.328633	-1.474825	1.036979	0.319795	0.120814	-0.939753	0.032857	-0.992655	-0.116434	-0.946917	0.006357	-0.321416
228	692337765													-0.539457	-1.524301	-1.173945	0.328842	0.113887	-0.937493	0.032935	-0.993481	-0.109136	-0.943810	0.005012	-0.330449
229	692354432													1.421753	-1.832367	-2.606457	0.336312	0.114105	-0.934812	0.035111	-0.993462	-0.108632	-0.941096	0.003712	-0.338120
230	692371099													2.644747	-4.304840	-1.624073	0.341020	0.114737	-0.933028	0.033616	-0.993377	-0.109872	-0.939455	0.006104	-0.342619
231	692387766													4.345397	-6.440679	1.670002	0.333263	0.111780	-0.936184	0.023110	-0.993617	-0.110410	-0.942551	0.015160	-0.333719
232	692404433													-1.527580	-4.678328	8.380548	0.337723	0.085614	-0.937344	0.002355	-0.995928	-0.090117	-0.941243	0.028227	-0.336550
233	692421100													-3.165679	2.983170	2.593467	0.351571	0.063266	-0.934021	-0.005177	-0.997567	-0.069518	-0.936147	0.029276	-0.350389
234	692437767													2.081017	6.574770	-0.200210	0.334037	0.060984	-0.940585	-0.001423	-0.997871	-0.065203	-0.942559	0.023119	-0.333239
235	692454434													3.443656	2.914458	0.029757	0.309173	0.067715	-0.948592	0.008368	-0.997617	-0.068487	-0.950969	0.013236	-0.309003
236	692471101													7.791486	-0.226993	-0.601143	0.290388	0.083282	-0.953278	0.024203	-0.996526	-0.079688	-0.956603	0.000068	-0.291395
237	692487768													7.754991	-2.045978	-3.496995	0.279449	0.113314	-0.953451	0.044373	-0.993475	-0.105065	-0.959135	-0.012948	-0.282653
238	692504435													3.958132	-1.443628	-3.269443	0.263660	0.145389	-0.953596	0.063396	-0.989051	-0.133266	-0.962530	-0.025317	-0.269990
239	692521102													4.588549	1.850969	-2.256375	0.242519	0.170457	-0.955054	0.075421	-0.984777	-0.156610	-0.967210	-0.034051	-0.251684
240	692537769													4.307547	3.199970	-1.906156	0.221134	0.191810	-0.956195	0.084395	-0.980554	-0.177179	-0.971585	-0.041518	-0.233022
241	692554436													2.846149	2.696281	-1.024917	0.199315	0.212319	-0.956658	0.092930	-0.975941	-0.197237	-0.975519	-0.049590	-0.214250
242	692571103													1.604418	1.905103	0.287463	0.177516	0.234108	-0.955867	0.102723	-0.970395	-0.218589	-0.978742	-0.059386	-0.196309
243	692587770													0.860292	1.324672	0.741378	0.155950	0.253759	-0.954613	0.112551	-0.964708	-0.238056	-0.981332	-0.070317	-0.179007
244	692604437													0.724319	1.690095	0.627363	0.133989	0.266850	-0.954378	0.119222	-0.960408	-0.251798	-0.983785	-0.080044	-0.160499
245	692621104													0.563194	1.974994	-0.111211	0.113197	0.272816	-0.955384	0.122688	-0.958043	-0.259039	-0.985969	-0.087891	-0.141919
246	692637771													0.576279	1.797942	-0.657811	0.093743	0.273943	-0.957166	0.123269	-0.957196	-0.261879	-0.987936	-0.093440	-0.123499
247	692654438													0.730356	1.520144	-0.610596	0.074844	0.273759	-0.958882	0.122507	-0.956819	-0.263608	-0.989642	-0.097740	-0.105149
248	692671105													0.613286	1.529303	-0.057554	0.057236	0.272679	-0.960401	0.121415	-0.956739	-0.264403	-0.990950	-0.101474	-0.087867
249	692687772													0.684479	1.335287	0.327723	0.040165	0.270952	-0.961755	0.120611	-0.956808	-0.264521	-0.991887	-0.105374	-0.071110
250	692704439													0.701256	1.006825	0.493785	0.022579	0.269706	-0.962678	0.120429	-0.956645	-0.265191	-0.992465	-0.109947	-0.054081
251	692721106													0.752922	0.902060	0.401089	0.004941	0.269141	-0.963088	0.120816	-0.956206	-0.266598	-0.992663	-0.115039	-0.037241
252	692737773													0.741453	0.283975	0.150821	-0.013155	0.269914	-0.962795	0.121366	-0.955328	-0.269479	-0.992521	-0.120395	-0.020191
253	692754440													0.855913	0.181213	-0.076886	-0.032454	0.273330	-0.961373	0.121556	-0.953660	-0.275241	-0.992054	-0.125793	-0.002275
254	692771107													1.058568	-0.189159	-0.351963	-0.053421	0.279413	-0.958684	0.121693	-0.951077	-0.283977	-0.991129	-0.131835	0.016805
255	692787774													1.064964	-0.498253	-0.666068	-0.077547	0.289723	-0.953964	0.121663	-0.946944	-0.297481	-0.989538	-0.139131	0.038184
256	692804441													0.970965	-0.633611	-0.445065	-0.104919	0.304790	-0.946623	0.121013	-0.940890	-0.316356	-0.987091	-0.147746	0.061834
257	692821108													0.724278	-0.669556	-0.299123	-0.133707	0.323126	-0.936863	0.119481	-0.933200	-0.338914	-0.983792	-0.157253	0.086168
258	692837775													0.221077	-0.332217	-0.148625	-0.163177	0.343702	-0.924793	0.116609	-0.924067	-0.364008	-0.979681	-0.167237	0.110708
259	692854442													-0.327888	-0.024765	-0.010527	-0.191443	0.363655	-0.911649	0.114561	-0.914202	-0.388731	-0.974795	-0.178859	0.133357
260	692871109													-1.090344	0.239737	0.001522	-0.218155	0.380825	-0.898544	0.112500	-0.904769	-0.410777	-0.969408	-0.190699	0.154537
261	692887776													-1.413313	0.311225	0.026541	-0.243056	0.393462	-0.886629	0.110890	-0.896776	-0.428364	-0.963653	-0.202435	0.174336
262	692904443													-1.396281	0.264201	-0.178987	-0.267386	0.401153	-0.876117	0.109813	-0.890613	-0.441305	-0.957312	-0.214207	0.194085
263	692921110													-1.422333	-0.168715	-0.215733	-0.290160	0.404838	-0.867129	0.109608	-0.886090	-0.450368	-0.950680	-0.225723	0.212734
264	692937777													-1.300030	-0.192638	-0.425701	-0.310191	0.406444	-0.859410	0.109936	-0.882599	-0.457091	-0.944296	-0.236266	0.229091
265	692954444													-0.909825	0.178279	-0.511549	-0.328785	0.409571	-0.850971	0.109698	-0.878404	-0.465158	-0.938012	-0.246287	0.243877
266	692971111													-0.774199	0.478073	-0.076488	-0.346754	0.414696	-0.841302	0.108349	-0.873238	-0.475096	-0.931677	-0.255896	0.257867
267	692987778													-1.182354	0.224423	0.218767	-0.362430	0.421229	-0.831391	0.106107	-0.867592	-0.485825	-0.925951	-0.264294	0.269746
268	693004445													-1.764620	-0.438179	-0.032733	-0.376019	0.428684	-0.821487	0.103483	-0.861575	-0.496971	-0.920816	-0.271881	0.279606
269	693021112													-2.104837	-0.997887	-0.395271	-0.388766	0.436288	-0.811489	0.100567	-0.855416	-0.508084	-0.915831	-0.279135	0.288680
270	693037779													-2.392226	-0.929964	-0.413021	-0.401239	0.444257	-0.801026	0.096861	-0.849026	-0.519396	-0.910838	-0.285990	0.297631
271	693054446													-2.708059	-0.338126	-0.166427	-0.413007	0.452023	-0.790633	0.092744	-0.842745	-0.530264	-0.905993	-0.292329	0.306137
272	693071113													-2.828892	0.215459	0.211660	-0.423533	0.459981	-0.780409	0.088473	-0.836369	-0.540980	-0.901550	-0.298168	0.313534
273	693087780													-2.918164	0.324192	0.454412	-0.432890	0.468368	-0.770219	0.084170	-0.829692	-0.551839	-0.897508	-0.303715	0.319743
274	693104447													-2.855278	0.083964	0.393953	-0.440944	0.477065	-0.760248	0.080031	-0.822768	-0.562715	-0.893960	-0.308969	0.324614
275	693121114													-2.320826	-0.568832	0.542714	-0.447396	0.485497	-0.751086	0.076495	-0.815974	-0.573005	-0.891058	-0.313815	0.327926
276	693137781													-2.610908	-0.193459	0.291477	-0.452072	0.495751	-0.741527	0.071507	-0.808508	-0.584125	-0.889111	-0.317091	0.330054
277	693154448													-2.390376	-0.492522	0.345684	-0.454988	0.507548	-0.731697	0.065461	-0.800386	-0.595900	-0.888088	-0.319025	0.330941
278	693171115													-2.783164	-0.553745	0.919713	-0.457294	0.519190	-0.722028	0.059117	-0.792349	-0.607197	-0.887349	-0.320352	0.331643
279	693187782													-3.274840	-0.693014	1.890346	-0.458710	0.530267	-0.713023	0.053003	-0.784668	-0.617647	-0.887004	-0.321113	0.331830
280	693204449													-3.422534	-1.061839	2.099301	-0.457609	0.542108	-0.704779	0.047500	-0.776604	-0.628196	-0.887884	-0.320946	0.329631
281	693221116													-3.791400	-1.129772	1.765577	-0.453562	0.555717	-0.696750	0.041778	-0.767672	-0.639480	-0.890245	-0.319153	0.324971
282	693237783													-4.670015	-1.139410	1.285770	-0.445418	0.570635	-0.689911	0.035749	-0.758623	-0.650548	-0.894609	-0.314429	0.317505
283	693254450													-5.683343	-2.263734	0.650781	-0.428740	0.584856	-0.688567	0.030600	-0.752334	-0.658071	-0.902910	-0.303211	0.304659
284	693271117													-5.491747	-3.194020	0.129832	-0.404985	0.593686	-0.695359	0.027652	-0.752217	-0.658335	-0.913905	-0.285844	0.288220
285	693287784													-5.910163	-4.150772	-0.479658	-0.373534	0.593638	-0.712787	0.028263	-0.760767	-0.648409	-0.927186	-0.262349	0.267395
286	693304451													-4.770462	-4.482866	-0.730617	-0.333901	0.586803	-0.737681	0.031808	-0.775135	-0.630994	-0.942071	-0.234154	0.240153
287	693321118													-4.106636	-2.945547	-0.595600	-0.292636	0.577295	-0.762296	0.033522	-0.790511	-0.611530	-0.955636	-0.204509	0.211980
288	693337785													-2.954226	0.049407	0.503820	-0.254057	0.568783	-0.782266	0.031992	-0.803419	-0.594553	-0.966660	-0.176077	0.185918
289	693354452													-1.277782	2.357330	2.226638	-0.217677	0.562611	-0.797550	0.028007	-0.813207	-0.581300	-0.975619	-0.148873	0.161259
290	693371119													1.149149	2.449651	3.652622	-0.178646	0.558101	-0.810314	0.022942	-0.820976	-0.570502	-0.983646	-0.120508	0.133860
291	693387786													2.751853	1.737605	4.176256	-0.138638	0.552223	-0.822088	0.020143	-0.828361	-0.559833	-0.990138	-0.094174	0.103718
292	693404453													2.745264	1.923197	3.942234	-0.097023	0.539549	-0.836345	0.020912	-0.839019	-0.543700	-0.995062	-0.070241	0.070121
293	693421120													2.169332	3.303357	2.963489	-0.054584	0.519420	-0.852774	0.023389	-0.853148	-0.521144	-0.998235	-0.048392	0.034420
294	693437787													2.793309	3.425205	2.372494	-0.013894	0.496491	-0.867930	0.025443	-0.867558	-0.496685	-0.999580	-0.028984	-0.000578
295	693454454													3.287366	2.642744	2.144601	0.027225	0.474000	-0.880104	0.027245	-0.880455	-0.473347	-0.999258	-0.011092	-0.036884
296	693471121													3.363194	2.141626	1.990665	0.069000	0.452023	-0.889334	0.029202	-0.891992	-0.451108	-0.997189	0.005156	-0.074747
297	693487788													3.465731	2.219445	1.276338	0.108622	0.432908	-0.894870	0.030889	-0.901231	-0.432237	-0.993603	0.019309	-0.111266
298	693504455													3.865583	2.611069	0.170446	0.144290	0.416248	-0.897729	0.031971	-0.908711	-0.416201	-0.989019	0.031353	-0.144426
299	693521122													4.527122	2.885005	-0.767716	0.177272	0.400141	-0.899145	0.032661	-0.915504	-0.400982	-0.983620	0.041716	-0.175362
300	693537789													4.960107	2.801386	-1.662804	0.207566	0.383207	-0.900038	0.032588	-0.922275	-0.385159	-0.977678	0.050615	-0.203921
301	693554456													4.896258	2.664730	-2.643552	0.235215	0.364070	-0.901181	0.031749	-0.929578	-0.367255	-0.971425	0.057772	-0.230210
302	693571123													4.747999	2.387514	-3.702468	0.260054	0.342388	-0.902852	0.030070	-0.937441	-0.346844	-0.965126	0.063049	-0.254081
303	693587790													4.567509	2.192916	-4.559133	0.281013	0.318639	-0.905263	0.027674	-0.945571	-0.324236	-0.959305	0.066062	-0.274536
304	693604457													4.771980	1.940172	-4.502133	0.296774	0.294987	-0.908245	0.023904	-0.953090	-0.301742	-0.954649	0.067839	-0.289903
305	693621124													4.288939	1.141259	-4.530523	0.309826	0.271923	-0.911079	0.019416	-0.959840	-0.279874	-0.950595	0.069023	-0.302663
306	693637791													3.843950	0.607062	-4.439709	0.320458	0.252579	-0.912968	0.015465	-0.965063	-0.261563	-0.947136	0.069701	-0.313168
307	693654458													3.120290	0.203531	-4.428336	0.328849	0.238684	-0.913722	0.013478	-0.968622	-0.248174	-0.944287	0.069297	-0.321747
308	693671125													2.446342	-0.398352	-3.844514	0.335413	0.229552	-0.913676	0.013995	-0.970966	-0.238808	-0.941967	0.067313	-0.328887
309	693687792													1.786618	-1.107258	-3.218398	0.341648	0.223798	-0.912793	0.016822	-0.972535	-0.232149	-0.939677	0.063958	-0.336030
310	693704459													1.267444	-1.671075	-2.341005	0.347717	0.219812	-0.911469	0.021154	-0.973722	-0.226755	-0.937361	0.059565	-0.343230
311	693721126													0.700188	-1.621846	-1.609652	0.354354	0.216583	-0.909684	0.026599	-0.974749	-0.221713	-0.934733	0.054368	-0.351167
312	693737793													-0.020319	-0.822983	-0.667419	0.360352	0.214461	-0.907829	0.033113	-0.975540	-0.217312	-0.932229	0.048248	-0.358639
313	693754460													-0.888496	0.402008	0.327262	0.365511	0.213922	-0.905891	0.040695	-0.975974	-0.214052	-0.929917	0.041373	-0.365435
314	693771127													-1.736614	1.643238	0.654699	0.368556	0.212781	-0.904926	0.048324	-0.976521	-0.209934	-0.928349	0.033642	-0.370185
315	693787794													-1.932578	1.345138	0.630877	0.368417	0.209000	-0.905863	0.054539	-0.977583	-0.203365	-0.928059	0.025518	-0.371557
316	693804461													-1.406726	-0.139826	0.933824	0.365155	0.205077	-0.908078	0.059277	-0.978577	-0.197162	-0.929058	0.018166	-0.369489
317	693821128													-1.163873	-1.721794	1.650902	0.361893	0.201092	-0.910272	0.062063	-0.979488	-0.191709	-0.930151	0.012884	-0.366950
318	693837795													-1.468430	-2.653006	2.102932	0.361004	0.192856	-0.912405	0.061145	-0.981173	-0.183199	-0.930558	0.010347	-0.365999
319	693854462													-2.329153	-2.520251	1.699418	0.362729	0.178480	-0.914644	0.056674	-0.983896	-0.169517	-0.930170	0.009652	-0.367003
320	693871129													-2.396429	-1.400175	0.704273	0.364497	0.158113	-0.917683	0.050868	-0.987389	-0.149918	-0.929814	0.007964	-0.367944
321	693887796													-1.481905	-0.428074	-0.042715	0.364100	0.137495	-0.921155	0.045128	-0.990486	-0.130006	-0.930266	0.005766	-0.366840
322	693904463													0.063895	-1.045512	-0.080045	0.362128	0.116912	-0.924767	0.038447	-0.993132	-0.110499	-0.931335	0.004460	-0.364136
323	693921130													1.437990	-2.365977	-0.744033	0.357134	0.092711	-0.929441	0.028294	-0.995679	-0.088446	-0.933624	0.005290	-0.358214
324	693937797													4.193499	-4.024933	1.798488	0.342057	0.083864	-0.935929	0.022165	-0.996452	-0.081186	-0.939418	0.007026	-0.342702
325	693954464													0.003894	-4.422780	8.247797	0.340211	0.068516	-0.937850	0.009358	-0.997539	-0.069481	-0.940302	0.014862	-0.340016
326	693971131													-3.731862	-0.809833	5.081314	0.348651	0.024313	-0.936937	-0.008232	-0.999545	-0.029001	-0.937216	0.017824	-0.348293
327	693987798													0.297209	1.950689	0.188075	0.333823	-0.004100	-0.942627	-0.013635	-0.999907	-0.000479	-0.942537	0.013013	-0.333848
328	694004465													2.079521	-1.720457	0.045234	0.308634	-0.000257	-0.951181	-0.006041	-0.999980	-0.001690	-0.951162	0.006268	-0.308630
329	694021132													3.587321	-2.896586	-1.051754	0.283984	0.037367	-0.958101	0.014580	-0.999293	-0.034652	-0.958718	-0.004129	-0.284328
330	694037799													6.863972	-2.154487	-2.976483	0.269345	0.096553	-0.958192	0.040891	-0.995211	-0.088789	-0.962175	-0.015267	-0.272003
331	694054466													6.742425	0.134615	-4.528101	0.258688	0.157890	-0.952970	0.067000	-0.987108	-0.145359	-0.963635	-0.026247	-0.265931
332	694071133													4.311787	3.262917	-3.044830	0.239109	0.203749	-0.949375	0.086716	-0.978311	-0.188119	-0.967113	-0.037345	-0.251591
333	694087800													2.615560	6.715483	-1.409199	0.215917	0.234872	-0.947742	0.100962	-0.970805	-0.217586	-0.971178	-0.048705	-0.233326
334	694104467													1.317150	6.728567	-0.173709	0.195366	0.249444	-0.948478	0.112362	-0.966438	-0.231024	-0.974273	-0.061438	-0.216837
335	694121134													0.435336	4.016127	0.447355	0.178022	0.250846	-0.951517	0.118629	-0.965381	-0.232306	-0.976850	-0.071522	-0.201616
336	694137801													0.579058	1.073562	0.820221	0.160383	0.244486	-0.956297	0.119370	-0.966532	-0.227083	-0.979810	-0.077733	-0.184200
337	694154468													1.013227	-0.599344	0.698565	0.143223	0.237011	-0.960892	0.118596	-0.968015	-0.221091	-0.982559	-0.082292	-0.166751
338	694171135													1.187176	-0.629929	0.049894	0.126138	0.231855	-0.964537	0.117696	-0.968934	-0.217520	-0.985006	-0.086085	-0.149508
339	694187802													0.977143	0.512819	-0.396393	0.109053	0.229946	-0.967074	0.116724	-0.969108	-0.217267	-0.987159	-0.089187	-0.132525
340	694204469													0.678166	1.615830	-0.207425	0.091592	0.229857	-0.968905	0.115699	-0.968861	-0.218910	-0.989052	-0.092051	-0.115334
341	694221136													1.062304	2.047131	-0.124829	0.074281	0.230107	-0.970326	0.115192	-0.968481	-0.220851	-0.990562	-0.095368	-0.098446
342	694237803													1.723304	2.206232	0.102346	0.056199	0.229823	-0.971609	0.114896	-0.968170	-0.222364	-0.991787	-0.099137	-0.080815
343	694254470													2.255883	1.630972	0.255177	0.038263	0.228221	-0.972857	0.116038	-0.967999	-0.222518	-0.992508	-0.104374	-0.063521
344	694271137													2.269780	0.534741	-0.174641	0.020517	0.227103	-0.973655	0.117446	-0.967664	-0.223231	-0.992867	-0.109772	-0.046526
345	694287804													2.102314	-0.290828	-0.445889	0.001228	0.228334	-0.973582	0.117663	-0.966853	-0.226608	-0.993053	-0.114276	-0.028054
346	694304471													1.982502	-0.519723	-0.461596	-0.020964	0.234636	-0.971857	0.116322	-0.964897	-0.235465	-0.992990	-0.117985	-0.007065
347	694321138													1.680990	-0.262976	-0.249358	-0.045697	0.244961	-0.968455	0.114283	-0.961821	-0.248676	-0.992397	-0.122042	0.015957
348	694337805													1.117788	-0.150453	-0.180333	-0.073630	0.259755	-0.962864	0.112157	-0.957202	-0.266804	-0.990959	-0.127636	0.041346
349	694354472													0.630658	-0.020636	-0.157333	-0.103846	0.277107	-0.955211	0.109937	-0.951320	-0.287930	-0.988499	-0.134914	0.068327
350	694371139													0.310011	-0.026819	-0.297737	-0.134558	0.296547	-0.945492	0.107617	-0.944152	-0.311442	-0.985045	-0.143658	0.095129
351	694387806													0.140637	-0.010385	-0.465458	-0.163820	0.315689	-0.934614	0.105433	-0.936384	-0.334767	-0.980840	-0.153381	0.120114
352	694404473													-0.294929	-0.042698	-0.482625	-0.191173	0.334861	-0.922671	0.102047	-0.928133	-0.357987	-0.976237	-0.162593	0.143262
353	694421140													-0.820157	0.431614	-0.223164	-0.216291	0.352623	-0.910426	0.097370	-0.920059	-0.379487	-0.971461	-0.170728	0.164666
354	694437807													-1.215491	1.012284	-0.193336	-0.240834	0.368049	-0.898075	0.093450	-0.912218	-0.398905	-0.966057	-0.179995	0.185299
355	694454474													-1.796059	1.256228	-0.132005	-0.266480	0.380238	-0.885668	0.089473	-0.905168	-0.415531	-0.959678	-0.189974	0.207188
356	694471141													-1.942762	1.258041	0.109675	-0.292533	0.387735	-0.874120	0.085883	-0.899761	-0.427849	-0.952391	-0.200232	0.229910
357	694487808													-2.086575	0.999503	-0.018114	-0.317942	0.390490	-0.863962	0.083438	-0.896187	-0.435761	-0.944431	-0.210634	0.252354
358	694504475													-2.252700	0.214040	-0.044405	-0.341171	0.390057	-0.855253	0.082336	-0.893945	-0.440549	-0.936388	-0.220721	0.272872
359	694521142													-2.574365	-0.905694	-0.229508	-0.361696	0.389745	-0.846921	0.081262	-0.891788	-0.445097	-0.928748	-0.229813	0.290885
360	694537809													-3.219634	-1.637172	-0.477376	-0.380147	0.390618	-0.838395	0.079299	-0.889343	-0.450311	-0.921520	-0.237668	0.307106
361	694554476													-3.898721	-1.590580	-0.574595	-0.396800	0.392153	-0.829919	0.076253	-0.886937	-0.455553	-0.914732	-0.244047	0.322034
362	694571143													-3.916929	-0.987289	-0.352488	-0.412616	0.394088	-0.821245	0.073041	-0.884353	-0.461070	-0.907972	-0.250229	0.336114
363	694587810													-3.130324	-0.432766	-0.060611	-0.427380	0.397340	-0.812076	0.070137	-0.880964	-0.467957	-0.901347	-0.256952	0.348638
364	694604477													-2.508208	0.030834	-0.056820	-0.440440	0.402150	-0.802676	0.067623	-0.876665	-0.476325	-0.895232	-0.264072	0.358923
365	694621144													-2.318050	0.519544	-0.489971	-0.450956	0.407952	-0.793860	0.065232	-0.871991	-0.485157	-0.890159	-0.270569	0.366618
366	694637811													-2.093720	0.795057	-0.939387	-0.459666	0.415059	-0.785132	0.062244	-0.866836	-0.494693	-0.885908	-0.276263	0.372620
367	694654478													-1.720801	0.621514	-0.410354	-0.466501	0.422674	-0.776997	0.059597	-0.861422	-0.504381	-0.882511	-0.281601	0.376664
368	694671145													-1.511293	0.159110	0.698801	-0.470647	0.431424	-0.769652	0.057299	-0.855517	-0.514594	-0.880459	-0.286293	0.377926
369	694687812													-2.193848	-0.156093	1.923478	-0.472485	0.441946	-0.762523	0.054380	-0.848920	-0.525716	-0.879659	-0.289859	0.377070
370	694704479													-3.557324	-1.012079	2.882028	-0.471910	0.454207	-0.755644	0.049956	-0.841930	-0.537270	-0.880230	-0.291292	0.374625
371	694721146													-4.652969	-1.836429	2.582189	-0.467827	0.468361	-0.749517	0.044596	-0.834453	-0.549272	-0.882694	-0.290390	0.369493
372	694737813													-5.602768	-1.956798	2.051427	-0.459664	0.484377	-0.744371	0.038760	-0.826427	-0.561708	-0.887247	-0.287048	0.361104
373	694754480													-6.265730	-1.982272	1.379968	-0.445934	0.501691	-0.741248	0.033255	-0.818291	-0.573842	-0.894448	-0.280546	0.348219
374	694771147													-7.390215	-2.766689	1.342328	-0.421914	0.518400	-0.743808	0.029071	-0.812247	-0.582589	-0.906170	-0.267425	0.327628
375	694787814													-7.515069	-3.597437	0.429328	-0.387350	0.527712	-0.755963	0.027311	-0.813048	-0.581555	-0.921528	-0.245912	0.300522
376	694804481													-6.649642	-3.155271	0.242714	-0.345936	0.524396	-0.778034	0.028868	-0.822891	-0.567466	-0.937814	-0.218767	0.269530
377	694821148													-4.989783	-2.875812	-0.372601	-0.300982	0.512683	-0.804093	0.032653	-0.837157	-0.545987	-0.953071	-0.190588	0.235229
378	694837815													-3.788331	-1.282286	0.052807	-0.258288	0.499702	-0.826792	0.034768	-0.850470	-0.524874	-0.965442	-0.164314	0.202293
379	694854482													-2.600808	1.351970	1.278371	-0.218881	0.490953	-0.843242	0.033597	-0.859893	-0.509368	-0.975173	-0.139821	0.171720
380	694871149													0.336067	3.406493	3.437058	-0.182683	0.486922	-0.854128	0.030433	-0.865530	-0.499931	-0.982701	-0.117323	0.143299
381	694887816													3.277548	2.453055	5.389722	-0.144642	0.483797	-0.863145	0.028209	-0.869947	-0.492337	-0.989082	-0.095561	0.112183
382	694904483													5.219358	1.099949	5.665034	-0.104583	0.474206	-0.874180	0.029451	-0.877139	-0.479334	-0.994080	-0.075875	0.077768
383	694921150													4.357450	1.394103	3.757269	-0.064293	0.459012	-0.886101	0.033713	-0.886432	-0.461630	-0.997361	-0.059552	0.041517
384	694937817													2.729295	2.518479	2.785535	-0.023544	0.438105	-0.898616	0.039991	-0.897733	-0.438722	-0.998923	-0.046265	0.003616
385	694954484													3.030909	1.483186	2.230412	0.019294	0.415229	-0.909512	0.046043	-0.909085	-0.414058	-0.998753	-0.033888	-0.036658
386	694971151													3.303858	1.021609	1.495566	0.064303	0.396215	-0.915903	0.050979	-0.917908	-0.393504	-0.996627	-0.021388	-0.079223
387	694987818													3.816540	0.862356	0.959075	0.106118	0.382825	-0.917706	0.054751	-0.923767	-0.379022	-0.992845	-0.010024	-0.118988
388	695004485													4.605659	1.043089	0.767297	0.143241	0.373941	-0.916324	0.057534	-0.927452	-0.369489	-0.988014	0.000206	-0.154364
389	695021152													4.878128	1.066675	-0.227796	0.177465	0.367880	-0.912782	0.059844	-0.929822	-0.363112	-0.982306	0.009815	-0.187026
390	695037819													5.193980	1.282083	-1.401641	0.209957	0.362745	-0.907928	0.061322	-0.931684	-0.358056	-0.975786	0.019500	-0.217858
391	695054486													4.958554	1.477753	-2.784215	0.239901	0.355224	-0.903473	0.062127	-0.934360	-0.350871	-0.968807	0.028044	-0.246223
392	695071153													4.619329	1.946239	-3.909972	0.267945	0.343020	-0.900302	0.062348	-0.938686	-0.339088	-0.961415	0.034725	-0.272903
393	695087820													4.703671	2.022102	-4.812748	0.291525	0.325678	-0.899415	0.060134	-0.944636	-0.322561	-0.954671	0.039949	-0.294970
394	695104487													4.727729	1.779694	-5.837545	0.310869	0.304019	-0.900518	0.055209	-0.951639	-0.302219	-0.948848	0.044234	-0.312620
395	695121154													4.665187	1.252243	-6.392827	0.324855	0.281330	-0.902952	0.047983	-0.958406	-0.281345	-0.944546	0.048070	-0.324842
396	695137821													4.570728	0.743505	-6.546938	0.333860	0.262054	-0.905464	0.040529	-0.963682	-0.263959	-0.941751	0.051427	-0.332356
397	695154488													4.200307	0.155261	-6.778917	0.339892	0.248918	-0.906925	0.035192	-0.967028	-0.252225	-0.939806	0.053813	-0.337445
398	695171155													3.386750	-0.097473	-6.500708	0.344309	0.241714	-0.907208	0.032851	-0.968800	-0.245657	-0.938282	0.054779	-0.341507
399	695187822													2.254348	-0.520233	-5.800541	0.347300	0.237104	-0.907284	0.033484	-0.970026	-0.240683	-0.937156	0.053209	-0.344829
400	695204489													1.047395	-0.599740	-4.507302	0.348008	0.232864	-0.908111	0.036964	-0.971315	-0.234906	-0.936763	0.048182	-0.346633
401	695221156													-0.314597	0.160521	-2.665195	0.345643	0.227620	-0.910340	0.042692	-0.972944	-0.227064	-0.937394	0.039619	-0.346009
402	695237823													-1.706053	1.224393	-0.145455	0.340671	0.222842	-0.913392	0.050316	-0.974434	-0.218968	-0.938835	0.028638	-0.343174
403	695254490													-3.040270	1.386097	2.959385	0.335643	0.221413	-0.915598	0.059951	-0.975034	-0.213809	-0.940080	0.016873	-0.340537
404	695271157													-3.260022	-1.226105	4.472335	0.331122	0.227652	-0.915714	0.071636	-0.973724	-0.216170	-0.940865	0.005980	-0.338730
405	695287824													-4.487858	-4.435055	4.876689	0.327424	0.235828	-0.914974	0.079637	-0.971795	-0.221975	-0.941515	-0.000186	-0.336970
406	695304491													-6.002239	-5.633130	5.483130	0.324731	0.234481	-0.916280	0.078996	-0.972120	-0.220775	-0.942502	-0.000690	-0.334200
407	695321158													-6.897273	-4.237194	4.638985	0.325187	0.220941	-0.919477	0.070411	-0.975281	-0.209448	-0.943025	0.003369	-0.332705
408	695337825													-5.688916	-2.608888	3.151257	0.327934	0.202135	-0.922822	0.057873	-0.979305	-0.193941	-0.942926	0.010194	-0.332846
409	695354492													-2.449713	-1.771983	1.109724	0.331538	0.181851	-0.925750	0.044431	-0.983168	-0.177219	-0.942395	0.017623	-0.334038
410	695371159													0.506196	-1.976640	-0.536201	0.335094	0.164662	-0.927684	0.034963	-0.986105	-0.162403	-0.941536	0.021986	-0.336195
411	695387826													2.273140	-5.038521	-1.344330	0.333556	0.143487	-0.931747	0.024644	-0.989339	-0.143533	-0.942408	0.024914	-0.333536
412	695404493													7.669329	-7.275051	3.599964	0.316046	0.141500	-0.938132	0.019345	-0.989571	-0.142741	-0.948547	0.026965	-0.315488
413	695421160													-0.724462	-3.464195	7.050468	0.329728	0.168740	-0.928874	0.026033	-0.985148	-0.169721	-0.943717	0.031780	-0.329224
414	695437827													-1.117706	5.370962	1.313033	0.319811	0.212271	-0.923397	0.041591	-0.976786	-0.210139	-0.946568	0.028800	-0.321215
415	695454494													7.688084	3.111947	-0.133762	0.293266	0.240236	-0.925355	0.059374	-0.970622	-0.233171	-0.954186	0.013439	-0.298914
416	695471161													7.187193	1.053179	-3.048647	0.273257	0.265262	-0.924644	0.080615	-0.964161	-0.252775	-0.958557	-0.005468	-0.284848
417	695487828													7.852079	0.000319	-4.759811	0.252466	0.311355	-0.916143	0.109600	-0.949923	-0.292633	-0.961379	-0.026529	-0.273948
418	695504495													5.454788	0.958241	-4.490180	0.231128	0.356718	-0.905169	0.133604	-0.933184	-0.333644	-0.963706	-0.043820	-0.263344
419	695521162													4.180168	5.045707	-2.210804	0.207034	0.390241	-0.897134	0.144168	-0.919160	-0.366553	-0.967653	-0.053449	-0.246558
420	695537829													2.877310	6.949658	0.133551	0.182898	0.413942	-0.891740	0.145874	-0.908426	-0.391768	-0.972250	-0.058428	-0.226533
421	695554496													2.087467	5.778647	0.625534	0.159135	0.423659	-0.891734	0.143308	-0.903590	-0.403717	-0.976800	-0.063547	-0.204506
422	695571163													1.941450	2.798364	0.627207	0.134561	0.422677	-0.896235	0.141812	-0.903365	-0.404748	-0.980705	-0.072633	-0.181498
423	695587830													1.872481	0.677232	0.288712	0.111764	0.419047	-0.901060	0.142995	-0.904086	-0.402717	-0.983393	-0.083838	-0.160965
424	695604497													1.482895	1.204904	-0.377869	0.089616	0.416438	-0.904737	0.142617	-0.904396	-0.402154	-0.985713	-0.092991	-0.140440
425	695621164													1.085670	1.521263	-0.467276	0.067474	0.414519	-0.907536	0.138667	-0.904677	-0.402903	-0.988038	-0.098660	-0.118522
426	695637831													0.505023	2.245917	-0.316473	0.044480	0.413025	-0.909633	0.133266	-0.904849	-0.404337	-0.990082	-0.103238	-0.095290
427	695654498													0.370378	2.227028	0.012051	0.021173	0.408975	-0.912300	0.129369	-0.905953	-0.403128	-0.991370	-0.109487	-0.072091
428	695671165													0.631485	1.681285	0.170492	-0.001859	0.402144	-0.915575	0.126838	-0.908087	-0.399112	-0.991922	-0.116872	-0.049319
429	695687832													0.827168	0.505398	-0.133712	-0.024562	0.396150	-0.917857	0.124573	-0.909765	-0.395991	-0.991906	-0.124067	-0.027003
430	695704499													0.899411	-0.567155	-0.574440	-0.047354	0.394425	-0.917707	0.122276	-0.909539	-0.397224	-0.991366	-0.131024	-0.005159
431	695721166													0.780043	-1.443601	-0.936425	-0.071701	0.400331	-0.913561	0.119513	-0.905872	-0.406341	-0.990240	-0.138317	0.017107
432	695737833													-0.022742	-1.745910	-0.512377	-0.099052	0.415238	-0.904304	0.114972	-0.897911	-0.424896	-0.988418	-0.146056	0.041199
433	695754500													-0.629418	-1.519189	-0.237098	-0.128886	0.436371	-0.890488	0.110461	-0.886072	-0.450194	-0.985488	-0.156388	0.066000
434	695771167													-1.450616	-1.042277	-0.163585	-0.163520	0.461205	-0.872096	0.104794	-0.870872	-0.480208	-0.980958	-0.169914	0.094074
435	695787834													-1.881175	-0.462596	-0.037313	-0.200633	0.486708	-0.850213	0.098919	-0.853360	-0.511852	-0.974660	-0.186796	0.123068
436	695804501													-2.053435	-0.376315	0.152529	-0.235971	0.508626	-0.828020	0.093330	-0.836282	-0.540298	-0.967268	-0.204774	0.149869
437	695821168													-2.037323	0.086772	0.107601	-0.264579	0.522373	-0.810632	0.088704	-0.823841	-0.559837	-0.960276	-0.220028	0.171634
438	695837835													-0.835904	1.041867	-0.031646	-0.288133	0.527622	-0.799121	0.083986	-0.817372	-0.569955	-0.953900	-0.231338	0.191200
439	695854502													-0.144675	1.117557	-0.469590	-0.309052	0.526797	-0.791815	0.079033	-0.815468	-0.573381	-0.947756	-0.239784	0.210388
440	695871169													-0.191902	0.646922	-0.621661	-0.330341	0.523593	-0.785319	0.073722	-0.815172	-0.574508	-0.940978	-0.247679	0.230685
441	695887836													-0.292297	0.575325	-0.502113	-0.353648	0.520490	-0.777189	0.068115	-0.814346	-0.576369	-0.932895	-0.256770	0.252539
442	695904503													-1.006636	0.423707	-0.484673	-0.379939	0.518110	-0.766295	0.062293	-0.812205	-0.580037	-0.922912	-0.268114	0.276314
443	695921170													-2.355490	-0.165363	-0.522216	-0.406773	0.516042	-0.753815	0.057236	-0.809149	-0.584809	-0.911735	-0.281030	0.299604
444	695937837													-3.942121	-1.297542	-0.523945	-0.430398	0.513759	-0.742165	0.054142	-0.806042	-0.589376	-0.901014	-0.293848	0.319103
445	695954504													-4.885675	-2.529447	-0.428515	-0.448281	0.512372	-0.732475	0.052268	-0.802995	-0.593689	-0.892363	-0.304424	0.333187
446	695971171													-4.428060	-3.313174	-0.440338	-0.460605	0.514037	-0.723609	0.049039	-0.799254	-0.598989	-0.886250	-0.311382	0.342933
447	695987838													-3.573263	-2.779679	-0.201597	-0.469567	0.520103	-0.713442	0.042879	-0.793682	-0.606820	-0.881855	-0.315534	0.350386
448	696004505													-3.538591	-1.307557	0.341316	-0.477073	0.532628	-0.699077	0.032596	-0.784162	-0.619700	-0.878259	-0.318429	0.356741
449	696021172													-5.155616	0.167516	1.839215	-0.483000	0.549328	-0.681872	0.020197	-0.771534	-0.635868	-0.875387	-0.320896	0.361556
450	696037839													-8.157146	0.815233	2.540713	-0.483569	0.566929	-0.666898	0.009148	-0.758587	-0.651507	-0.875259	-0.321149	0.361643
451	696054506													-8.227996	0.773169	2.607015	-0.475784	0.581528	-0.659890	0.002657	-0.749295	-0.662231	-0.879558	-0.316832	0.354957
452	696071173													-8.107516	-1.062486	1.417576	-0.465586	0.591702	-0.658117	-0.000146	-0.743684	-0.668531	-0.885002	-0.311163	0.346336
453	696087840													-7.330709	-3.320283	0.134561	-0.450572	0.597839	-0.663003	0.000417	-0.742520	-0.669823	-0.892740	-0.302080	0.334310
454	696104507													-4.276027	-5.583462	1.354062	-0.431560	0.599521	-0.674041	0.003326	-0.746142	-0.665779	-0.902078	-0.289565	0.320011
455	696121174													-3.016669	-4.949459	2.476828	-0.400259	0.603506	-0.689619	0.004640	-0.751184	-0.660076	-0.916390	-0.267401	0.297868
456	696137841													-3.186256	-2.503592	1.539866	-0.360212	0.608691	-0.706925	0.005206	-0.756472	-0.654005	-0.932856	-0.239261	0.269321
457	696154508													-3.001226	-1.515377	-0.009583	-0.316768	0.609143	-0.727051	0.006805	-0.765045	-0.643941	-0.948479	-0.208928	0.238196
458	696171175													-2.695897	0.876822	0.049764	-0.273059	0.604768	-0.748127	0.006893	-0.776431	-0.630165	-0.961972	-0.177229	0.207843
459	696187842													-1.474734	3.065706	1.714274	-0.231097	0.598516	-0.767054	0.003967	-0.787809	-0.615906	-0.972923	-0.145377	0.179687
460	696204509													0.326713	3.773480	3.526092	-0.189161	0.590933	-0.784230	0.001642	-0.798457	-0.602050	-0.981945	-0.115172	0.150066
461	696221176													1.120574	2.788537	4.833528	-0.147533	0.579447	-0.801546	0.002217	-0.810218	-0.586124	-0.989055	-0.088250	0.118249
462	696237843													1.184885	2.963344	4.551843	-0.106552	0.560003	-0.821610	0.006148	-0.825927	-0.563743	-0.994288	-0.065119	0.084561
463	696254510													1.556124	3.698697	3.431612	-0.067060	0.534636	-0.842418	0.012794	-0.843788	-0.536524	-0.997667	-0.046757	0.049744
464	696271177													2.299397	3.305113	2.639846	-0.029563	0.506007	-0.862023	0.021380	-0.861882	-0.506657	-0.999334	-0.033408	0.014662
465	696287844													3.163696	3.171536	2.700028	0.008654	0.475985	-0.879411	0.030896	-0.879151	-0.475540	-0.999485	-0.023055	-0.022315
466	696304511													3.619311	3.277901	2.476729	0.049239	0.449195	-0.892076	0.038965	-0.893343	-0.447682	-0.998027	-0.012717	-0.061490
467	696321178													4.048152	2.781683	1.607138	0.088827	0.423799	-0.901390	0.045354	-0.905750	-0.421380	-0.995014	-0.003452	-0.099676
468	696337845													4.689542	1.965267	0.569211	0.125015	0.399302	-0.908256	0.048861	-0.916805	-0.396335	-0.990951	0.005170	-0.134124
469	696354512													5.569754	1.505196	-0.290116	0.159094	0.376161	-0.912793	0.049320	-0.926443	-0.373190	-0.986031	0.014353	-0.165944
470	696371179													6.002883	1.246534	-1.573191	0.191818	0.354453	-0.915188	0.047677	-0.934769	-0.352044	-0.980272	0.023895	-0.196204
471	696387846													5.678769	1.616581	-3.134629	0.223185	0.330790	-0.916933	0.045084	-0.943157	-0.329277	-0.973733	0.032151	-0.225412
472	696404513													5.596676	1.679448	-4.378478	0.251239	0.305819	-0.918343	0.041623	-0.951311	-0.305410	-0.967030	0.038507	-0.251735
473	696421180													5.179795	1.868064	-5.485247	0.275080	0.279258	-0.919971	0.037612	-0.959279	-0.279944	-0.960685	0.042405	-0.274382
474	696437847													4.853679	1.383698	-6.012574	0.292775	0.252015	-0.922373	0.032618	-0.966713	-0.253777	-0.955625	0.044214	-0.291249
475	696454514													4.376316	0.848842	-6.077580	0.304604	0.226257	-0.925216	0.026847	-0.973030	-0.229112	-0.952101	0.044949	-0.302463
476	696471181													4.004699	-0.019067	-5.947792	0.312628	0.204951	-0.927501	0.022014	-0.977746	-0.208634	-0.949621	0.044807	-0.310182
477	696487848													3.514954	-0.743564	-5.850951	0.317816	0.193607	-0.928175	0.021013	-0.980128	-0.197248	-0.947920	0.043185	-0.315569
478	696504515													2.540030	-1.166929	-5.630688	0.320544	0.193886	-0.927178	0.025273	-0.980230	-0.196242	-0.946896	0.039472	-0.319107
479	696521182													1.881714	-1.454614	-5.290893	0.320885	0.202441	-0.925230	0.034718	-0.978747	-0.202109	-0.946482	0.032732	-0.321093
480	696537849													1.555742	-1.340147	-4.570745	0.318137	0.214615	-0.923433	0.047817	-0.976433	-0.210459	-0.946838	0.022799	-0.320901
481	696554516													1.326153	-0.791456	-3.563953	0.312253	0.225876	-0.922756	0.061998	-0.974097	-0.217464	-0.947974	0.010695	-0.318168
482	696571183													0.801078	0.026990	-1.837383	0.303724	0.233318	-0.923750	0.075239	-0.972398	-0.220867	-0.949785	-0.002420	-0.312895
483	696587850													-0.703557	0.330736	1.423332	0.297364	0.233688	-0.925724	0.084822	-0.972216	-0.218177	-0.950989	-0.013644	-0.308924
484	696604517													-3.141045	-0.593934	4.723332	0.298206	0.223301	-0.928014	0.087893	-0.974543	-0.206253	-0.950446	-0.020060	-0.310241
485	696621184													-7.590326	-1.473533	7.528849	0.304252	0.199017	-0.931570	0.082631	-0.979760	-0.182325	-0.949001	-0.021504	-0.314539
486	696637851													-10.400038	-1.847764	7.524416	0.311266	0.171510	-0.934718	0.075345	-0.984937	-0.155634	-0.947331	-0.021982	-0.319500
487	696654518													-7.641043	-2.271079	4.900563	0.316660	0.149375	-0.936704	0.069990	-0.988510	-0.133976	-0.945953	-0.023135	-0.323476
488	696671185													-4.219500	-2.395646	2.886628	0.320542	0.132375	-0.937939	0.066267	-0.990895	-0.117202	-0.944913	-0.024586	-0.326396
489	696687852													-1.313904	-2.082855	0.377522	0.323478	0.122069	-0.938329	0.064544	-0.992181	-0.106824	-0.944032	-0.026008	-0.328827
490	696704519													0.656753	-2.796471	-1.674312	0.327234	0.111371	-0.938357	0.061543	-0.993434	-0.096446	-0.942937	-0.026189	-0.331939
491	696721186													5.075649	-4.043862	-3.526314	0.323600	0.097401	-0.941167	0.056785	-0.994894	-0.083437	-0.944488	-0.026444	-0.327479
492	696737853													7.831434	-8.471496	5.567370	0.316443	0.096817	-0.943658	0.048236	-0.995133	-0.085923	-0.947385	-0.018328	-0.319573
493	696754520													-3.414569	-3.196039	9.254725	0.334652	0.089623	-0.938070	0.036967	-0.995949	-0.081965	-0.941617	-0.007248	-0.336609
494	696771187													-0.045958	6.365658	2.475576	0.315739	0.088044	-0.944752	0.036249	-0.996078	-0.080712	-0.948153	-0.008762	-0.317693
495	696787854													6.629892	2.579912	-0.164145	0.283391	0.085970	-0.955143	0.041420	-0.996142	-0.077371	-0.958109	-0.017635	-0.285859
496	696804521													8.253510	-0.840655	-2.966784	0.268765	0.104527	-0.957517	0.060188	-0.993974	-0.091613	-0.961324	-0.033009	-0.273436
497	696821188													6.941920	-2.001711	-6.375266	0.258460	0.157623	-0.953076	0.091276	-0.986169	-0.138343	-0.961700	-0.051237	-0.269273
498	696837855													4.691559	-0.131392	-6.276683	0.242657	0.212931	-0.946455	0.120062	-0.974706	-0.188505	-0.962654	-0.067891	-0.262084
499	696854522													3.243576	4.818419	-3.357692	0.220721	0.256691	-0.940953	0.138139	-0.963248	-0.230370	-0.965505	-0.079135	-0.248068
500	696871189													2.538280	7.880883	-0.440175	0.198457	0.290305	-0.936129	0.149264	-0.952938	-0.263874	-0.968677	-0.087363	-0.232449
501	696887856													1.420307	6.430936	1.036617	0.178284	0.306914	-0.934890	0.153646	-0.947140	-0.281635	-0.971909	-0.093431	-0.216016
502	696904523													1.642720	2.507326	1.625408	0.158313	0.306674	-0.938556	0.153071	-0.946675	-0.283507	-0.975452	-0.098783	-0.196813
503	696921190													1.778542	0.384300	1.040525	0.138402	0.301282	-0.943437	0.152819	-0.947693	-0.280223	-0.978515	-0.105392	-0.177204
504	696937857													1.640422	0.986256	-0.343034	0.118126	0.297316	-0.947443	0.152304	-0.948259	-0.278583	-0.981249	-0.111391	-0.157297
505	696954524													0.947375	1.721172	-0.756571	0.097558	0.293987	-0.950818	0.149250	-0.948892	-0.278078	-0.983975	-0.114781	-0.136450
506	696971191													0.941815	2.460766	-0.537462	0.075906	0.289049	-0.954300	0.144461	-0.950152	-0.276302	-0.986595	-0.116886	-0.113878
507	696987858													1.593941	2.401153	-0.169399	0.053485	0.280428	-0.958384	0.139230	-0.952477	-0.270930	-0.988815	-0.118945	-0.089987
508	697004525													2.094733	1.532559	0.173182	0.030025	0.269863	-0.962431	0.135735	-0.955046	-0.263558	-0.990290	-0.122723	-0.065305
509	697021192													2.485125	0.039872	-0.203156	0.006579	0.261181	-0.965267	0.132718	-0.956977	-0.258033	-0.991132	-0.126411	-0.040960
510	697037859													2.491898	-1.409236	-0.734278	-0.018201	0.260319	-0.965351	0.129169	-0.956808	-0.260450	-0.991456	-0.129434	-0.016210
511	697054526													2.181379	-1.891276	-1.047780	-0.045491	0.269176	-0.962016	0.124693	-0.953951	-0.272816	-0.991152	-0.132367	0.009832
512	697071193													1.802172	-1.529200	-0.651729	-0.075425	0.285674	-0.955354	0.120111	-0.948504	-0.293109	-0.989891	-0.136856	0.037228
513	697087860													1.043128	-1.303934	-0.486299	-0.109229	0.308103	-0.945062	0.114615	-0.940505	-0.319864	-0.987387	-0.143256	0.067417
514	697104527													0.315314	-0.854409	-0.023616	-0.145657	0.334151	-0.931196	0.108204	-0.930208	-0.350722	-0.983400	-0.151844	0.099335
515	697121194													-0.540167	-0.251638	-0.146351	-0.183404	0.361300	-0.914235	0.101407	-0.918095	-0.383169	-0.977793	-0.162984	0.131744
516	697137861													-1.134138	0.424834	0.133030	-0.221183	0.386338	-0.895444	0.094551	-0.905365	-0.413974	-0.970638	-0.176229	0.163722
517	697154528													-1.624185	0.522525	-0.005377	-0.255429	0.405745	-0.877569	0.087738	-0.894206	-0.438974	-0.962839	-0.189123	0.192807
518	697171195													-2.503571	0.850678	-0.226800	-0.284705	0.417482	-0.862932	0.081455	-0.886395	-0.455708	-0.955148	-0.200033	0.218355
519	697187862													-3.397560	0.920020	-0.659767	-0.309488	0.420446	-0.852902	0.076150	-0.883100	-0.462965	-0.947849	-0.208231	0.241291
520	697204529													-3.785884	0.778705	-0.746371	-0.330080	0.416885	-0.846909	0.071855	-0.883494	-0.462899	-0.941214	-0.213648	0.261668
521	697221196													-3.348224	0.911748	-0.420785	-0.347905	0.412763	-0.841777	0.067942	-0.884406	-0.461747	-0.935065	-0.217836	0.279645
522	697237863													-2.428792	0.908128	-0.052422	-0.364580	0.412627	-0.834758	0.063949	-0.883247	-0.464526	-0.928973	-0.222739	0.295627
523	697254530													-2.517580	0.131875	0.219313	-0.380939	0.415299	-0.826082	0.060322	-0.880381	-0.470414	-0.922630	-0.229030	0.310320
524	697271197													-3.670850	-0.953310	0.082988	-0.397106	0.419353	-0.816364	0.057215	-0.876463	-0.478057	-0.915988	-0.236547	0.324055
525	697287864													-4.264256	-1.730977	-0.265363	-0.411577	0.424195	-0.806637	0.054382	-0.872069	-0.486352	-0.909751	-0.244038	0.335855
526	697304531													-4.364788	-1.474904	-0.643063	-0.424045	0.430712	-0.796664	0.049408	-0.867356	-0.495229	-0.904293	-0.249361	0.346517
527	697321198													-5.163621	-0.891452	-0.610433	-0.433718	0.441323	-0.785572	0.041238	-0.861206	-0.506580	-0.900105	-0.252109	0.355321
528	697337865													-4.298782	-0.071606	0.070592	-0.436303	0.454231	-0.776733	0.032466	-0.854719	-0.518074	-0.899214	-0.251254	0.358170
529	697354532													-4.405392	-0.329894	0.656156	-0.437730	0.465077	-0.769478	0.024139	-0.849437	-0.527137	-0.898782	-0.249318	0.360597
530	697371199													-5.890525	0.184182	1.020282	-0.435728	0.474757	-0.764688	0.016206	-0.845303	-0.534041	-0.899933	-0.245089	0.360628
531	697387866													-6.561110	0.726859	2.070280	-0.430493	0.481844	-0.763218	0.010906	-0.842745	-0.538203	-0.902528	-0.240016	0.357540
532	697404533													-6.408742	-0.909031	1.859993	-0.421404	0.485258	-0.766122	0.009218	-0.842460	-0.538680	-0.906826	-0.234064	0.350543
533	697421200													-5.056200	-4.181371	2.550180	-0.404645	0.486246	-0.774485	0.010244	-0.844455	-0.535528	-0.914417	-0.224632	0.336724
534	697437867													-3.975367	-3.424741	3.616063	-0.378010	0.488787	-0.786254	0.011032	-0.846830	-0.531750	-0.925736	-0.209681	0.314718
535	697454534													-4.234483	-2.931569	2.999977	-0.340568	0.490374	-0.802214	0.013494	-0.850582	-0.525669	-0.940123	-0.189851	0.283064
536	697471201													-2.292190	-2.409805	1.263544	-0.297942	0.486762	-0.821154	0.017009	-0.857378	-0.514406	-0.954433	-0.167230	0.247169
537	697487868													-1.256962	-0.312307	0.474615	-0.253206	0.481515	-0.839065	0.017386	-0.864924	-0.501602	-0.967256	-0.141596	0.210632
538	697504535													-0.117322	2.241054	1.422436	-0.208476	0.479017	-0.852690	0.012618	-0.870457	-0.492083	-0.977946	-0.113346	0.175425
539	697521202													1.342827	2.792150	3.279334	-0.164378	0.479831	-0.861825	0.005141	-0.873281	-0.487190	-0.986384	-0.084514	0.141081
540	697537869													1.854645	2.047205	4.617001	-0.120528	0.479463	-0.869246	0.000115	-0.875623	-0.482996	-0.992710	-0.058314	0.105482
541	697554536													1.728147	2.285003	4.525777	-0.079963	0.471288	-0.878347	-0.000550	-0.881190	-0.472763	-0.996798	-0.037321	0.070722
542	697571203													2.191485	3.485293	3.352705	-0.043526	0.453385	-0.890251	0.003734	-0.891016	-0.453957	-0.999045	-0.023083	0.037090
543	697587870													2.774302	3.266198	1.657014	-0.010718	0.430324	-0.902611	0.011567	-0.902549	-0.430431	-0.999876	-0.015054	0.004696
544	697604537													3.647126	2.808458	1.743821	0.021738	0.405396	-0.913883	0.020800	-0.914084	-0.404991	-0.999547	-0.010205	-0.028303
545	697621204													4.236122	2.202562	1.273617	0.056119	0.383098	-0.922002	0.029496	-0.923690	-0.382004	-0.997988	-0.005757	-0.063136
546	697637871													4.512312	1.568175	0.598904	0.089909	0.363602	-0.927206	0.036541	-0.931553	-0.361764	-0.995279	-0.001355	-0.097041
547	697654538													4.639115	0.788558	-0.305566	0.122798	0.345623	-0.930304	0.039971	-0.938360	-0.343340	-0.991626	0.004976	-0.129043
548	697671205													4.939519	0.799212	-1.063991	0.153317	0.328319	-0.932041	0.041479	-0.944499	-0.325885	-0.987306	0.011304	-0.158426
549	697687872													4.930208	0.945037	-2.227862	0.181688	0.310795	-0.932950	0.042288	-0.950332	-0.308350	-0.982447	0.016571	-0.185807
550	697704539													4.827014	1.211015	-3.371481	0.207494	0.290002	-0.934262	0.042235	-0.956812	-0.287622	-0.977324	0.020222	-0.210780
551	697721206													5.130681	1.067795	-4.256767	0.230311	0.262705	-0.936986	0.039471	-0.964600	-0.260745	-0.972316	0.023069	-0.232527
552	697737873													5.030219	1.032650	-4.647348	0.249121	0.229171	-0.940967	0.032706	-0.973036	-0.228322	-0.967920	0.026104	-0.249899
553	697754540													4.567186	1.010257	-4.708068	0.264540	0.192471	-0.944973	0.023522	-0.980878	-0.193199	-0.964088	0.028881	-0.264009
554	697771207													3.911412	0.759115	-4.335076	0.277333	0.156478	-0.947946	0.014290	-0.987211	-0.158778	-0.960667	0.030489	-0.276023
555	697787874													3.279633	0.276210	-3.607414	0.288728	0.124666	-0.949260	0.005803	-0.991696	-0.128474	-0.957393	0.031586	-0.287054
556	697804541													2.464420	-0.347882	-2.941467	0.300406	0.099799	-0.948576	-0.002073	-0.994440	-0.105281	-0.953809	0.033594	-0.298529
557	697821208													1.438052	-0.741322	-2.346428	0.311197	0.083421	-0.946677	-0.008179	-0.995868	-0.090445	-0.950310	0.035889	-0.309228
558	697837875													0.858589	-1.188129	-2.018280	0.319411	0.075979	-0.944565	-0.010335	-0.996442	-0.083647	-0.947560	0.036480	-0.317490
559	697854542													1.213195	-1.036542	-1.680082	0.322998	0.076569	-0.943297	-0.007520	-0.996483	-0.083461	-0.946370	0.034052	-0.321286
560	697871209													1.859258	-0.038252	-1.755952	0.322689	0.082219	-0.942927	-0.000675	-0.996200	-0.087095	-0.946505	0.028741	-0.321407
561	697887876													2.363763	0.360155	-1.961316	0.318131	0.088147	-0.943940	0.007866	-0.995879	-0.090346	-0.948014	0.021317	-0.317513
562	697904543													2.535117	-0.452019	-1.780110	0.308363	0.089096	-0.947087	0.014278	-0.995926	-0.089041	-0.951161	0.013935	-0.308379
563	697921210													1.991844	-1.190125	-1.245784	0.294993	0.081786	-0.951993	0.014607	-0.996600	-0.081092	-0.955388	0.010016	-0.295184
564	697937877													0.640260	-1.224904	-0.222896	0.280199	0.064604	-0.957766	0.007740	-0.997852	-0.065043	-0.959911	0.010812	-0.280097
565	697954544													-1.301058	0.008897	1.422266	0.269316	0.034647	-0.962428	-0.006067	-0.999272	-0.037671	-0.963033	0.015984	-0.268910
566	697971211													-2.725106	1.862850	2.972075	0.263856	-0.011072	-0.964498	-0.027960	-0.999602	0.003826	-0.964157	0.025958	-0.264061
567	697987878													-2.939818	2.425679	4.023639	0.260051	-0.069427	-0.963096	-0.054427	-0.996880	0.057167	-0.964060	0.037552	-0.263018
568	698004545													-3.340824	1.947265	2.920359	0.258930	-0.129438	-0.957184	-0.076597	-0.990611	0.113238	-0.962854	0.043997	-0.266413
569	698021212													-3.000459	1.163849	1.430846	0.260230	-0.181987	-0.948241	-0.091690	-0.982296	0.163361	-0.961183	0.044432	-0.272310
570	698037879													-2.231416	-0.168173	0.253208	0.260578	-0.222841	-0.939383	-0.100824	-0.973958	0.203075	-0.960174	0.041796	-0.276260
571	698054546													-5.630251	-0.973767	1.973687	0.267163	-0.270571	-0.924887	-0.114149	-0.961901	0.248426	-0.956867	0.039204	-0.287870
572	698071213													0.802454	-2.975929	-7.576430	0.251071	-0.313422	-0.915822	-0.122456	-0.948811	0.291140	-0.960192	0.039051	-0.276599
573	698087880													8.769107	-3.617932	-6.474641	0.227565	-0.315729	-0.921157	-0.110955	-0.948223	0.297595	-0.967421	0.034485	-0.250814
574	698104547													5.796690	-5.768582	3.595504	0.212442	-0.298719	-0.930395	-0.097085	-0.953870	0.284088	-0.972339	0.029975	-0.231644
575	698121214													-1.324290	-3.765939	11.224514	0.218652	-0.301636	-0.928012	-0.096125	-0.953057	0.287129	-0.971057	0.026424	-0.237382
576	698137881													-3.683928	2.622954	6.126219	0.233002	-0.314524	-0.920209	-0.095891	-0.949073	0.300109	-0.967737	0.018314	-0.251296
577	698154548													0.533336	3.603980	0.464158	0.230038	-0.316021	-0.920442	-0.089116	-0.948674	0.303442	-0.969093	0.012223	-0.246393
578	698171215													3.706774	0.575862	-1.793312	0.208380	-0.311572	-0.927093	-0.074631	-0.950203	0.302564	-0.975196	0.006142	-0.221256
579	698187882													6.077926	-2.117133	-0.371528	0.186766	-0.300436	-0.935338	-0.052273	-0.953781	0.295923	-0.981013	-0.006375	-0.193839
580	698204549													4.662260	-4.608145	-2.220833	0.176630	-0.273541	-0.945504	-0.024002	-0.961518	0.273690	-0.983985	-0.025648	-0.176399
581	698221216													2.144211	-3.347896	-2.559920	0.173164	-0.237859	-0.955739	0.001961	-0.970314	0.241842	-0.984891	-0.043752	-0.167557
582	698237883													1.876516	2.262294	-1.435748	0.168526	-0.210766	-0.962900	0.016707	-0.976121	0.216584	-0.985556	-0.052587	-0.160980
583	698254550													3.109559	6.405667	0.141540	0.159935	-0.198106	-0.967044	0.024654	-0.978548	0.204540	-0.986820	-0.056554	-0.151620
584	698271217													3.224554	6.796767	-0.776650	0.148975	-0.208179	-0.966679	0.027614	-0.976331	0.214513	-0.988455	-0.058651	-0.139700
585	698287884													2.450889	3.520612	0.033208	0.135356	-0.238111	-0.961760	0.027608	-0.969410	0.243890	-0.990412	-0.059564	-0.124642
586	698304551													1.247759	0.600197	0.979922	0.123543	-0.269503	-0.955042	0.028634	-0.961046	0.274901	-0.991926	-0.061308	-0.111014
587	698321218													0.925480	-0.291746	0.111245	0.113669	-0.293671	-0.949124	0.030876	-0.953810	0.298819	-0.993039	-0.063272	-0.099352
588	698337885													0.656174	-0.828198	-0.186897	0.105120	-0.312905	-0.943949	0.033176	-0.947576	0.317802	-0.993906	-0.064724	-0.089228
589	698354552													0.363219	-0.497724	-0.193921	0.096751	-0.329306	-0.939253	0.034274	-0.942019	0.333806	-0.994718	-0.064488	-0.079854
590	698371219													0.907109	0.537626	-0.080909	0.087690	-0.342713	-0.935339	0.035002	-0.937316	0.346719	-0.995533	-0.063143	-0.070198
591	698387886													1.368732	1.149819	0.085197	0.078058	-0.354505	-0.931790	0.036237	-0.933015	0.358007	-0.996290	-0.061711	-0.059983
592	698404553													1.426439	1.039437	0.177458	0.068131	-0.365755	-0.928214	0.038776	-0.928702	0.368794	-0.996923	-0.061119	-0.049091
593	698421220													1.186844	0.372646	0.122555	0.058398	-0.375444	-0.925004	0.042467	-0.924812	0.378047	-0.997390	-0.061359	-0.038064
594	698437887													0.942896	-0.303841	-0.016827	0.049327	-0.381761	-0.922944	0.046774	-0.922172	0.383941	-0.997687	-0.062108	-0.027631
595	698454554													0.595475	-0.557803	-0.189589	0.041547	-0.384656	-0.922124	0.051146	-0.920893	0.386447	-0.997827	-0.063218	-0.018587
596	698471221													0.588489	-0.198134	-0.338998	0.034270	-0.383736	-0.922807	0.055304	-0.921206	0.385124	-0.997881	-0.064233	-0.010348
597	698487888													1.074065	0.302390	-0.202220	0.026217	-0.378687	-0.925154	0.059464	-0.923242	0.379589	-0.997886	-0.064965	-0.001687
598	698504555													1.342337	0.416284	0.052394	0.016825	-0.371027	-0.928470	0.063603	-0.926323	0.371322	-0.997833	-0.065301	0.008013
599	698521222													0.974774	0.288243	0.137906	0.007399	-0.364186	-0.931297	0.067750	-0.929000	0.363826	-0.997675	-0.065788	0.017800
600	698537889													0.165516	0.586212	-0.018902	-0.001239	-0.360388	-0.932802	0.070919	-0.930485	0.359399	-0.997481	-0.065708	0.026711
601	698554556													0.000747	1.433642	-0.195545	-0.009488	-0.359070	-0.933263	0.072925	-0.931068	0.357484	-0.997292	-0.064666	0.035019
602	698571223													0.303510	2.075183	-0.134768	-0.017540	-0.359603	-0.932941	0.074588	-0.930955	0.357435	-0.997060	-0.063316	0.043150
603	698587890													0.499851	2.157388	0.154700	-0.026308	-0.362515	-0.931606	0.076613	-0.929919	0.359695	-0.996714	-0.061911	0.052237
604	698604557													0.243850	1.560579	0.390298	-0.036276	-0.368998	-0.928722	0.079322	-0.927465	0.365400	-0.996189	-0.060413	0.062915
605	698621224													-0.486787	0.852885	0.484684	-0.046512	-0.380691	-0.923532	0.082234	-0.922853	0.376270	-0.995527	-0.058445	0.074230
606	698637891													-0.983708	0.487350	0.390886	-0.055585	-0.396327	-0.916425	0.085461	-0.916364	0.391118	-0.994790	-0.056578	0.084807
607	698654558													-1.513145	0.062792	0.383355	-0.061210	-0.414625	-0.907931	0.089674	-0.908243	0.408722	-0.994088	-0.056400	0.092775
608	698671225													-1.616294	-0.510014	-0.258629	-0.065916	-0.431952	-0.899485	0.094441	-0.900099	0.425326	-0.993346	-0.056912	0.100125
609	698687892													-1.854130	-0.461360	-0.330996	-0.069525	-0.446604	-0.892026	0.098979	-0.892866	0.439310	-0.992658	-0.057748	0.106281
610	698704559													-1.604690	-0.182818	-0.161430	-0.072379	-0.457978	-0.886012	0.102697	-0.887043	0.450121	-0.992076	-0.058411	0.111236
611	698721226													-1.000340	-0.115130	-0.119815	-0.076207	-0.466002	-0.881496	0.105252	-0.882887	0.457638	-0.991521	-0.057904	0.116330
612	698737893													-0.227951	-0.110642	-0.234620	-0.081149	-0.469750	-0.879062	0.107368	-0.880958	0.460852	-0.990902	-0.056985	0.121925
613	698754560													0.313015	0.153525	-0.202644	-0.084976	-0.469949	-0.878594	0.110513	-0.880788	0.460434	-0.990235	-0.057971	0.126781
614	698771227													1.067503	0.570870	0.047716	-0.087980	-0.467837	-0.879425	0.114356	-0.881755	0.457636	-0.989536	-0.060305	0.131077
615	698787894													1.475663	0.401062	0.085323	-0.091186	-0.465289	-0.880450	0.118095	-0.882946	0.454378	-0.988807	-0.062544	0.135460
616	698804561													1.292098	-0.224876	-0.171972	-0.094292	-0.463303	-0.881169	0.121315	-0.883864	0.451738	-0.988125	-0.064304	0.139547
617	698821228													0.911031	-0.781143	-0.274027	-0.097180	-0.460998	-0.882064	0.123728	-0.884979	0.448891	-0.987546	-0.065512	0.143041
618	698837895													0.693587	-0.835401	-0.160274	-0.100356	-0.456541	-0.884024	0.125105	-0.887248	0.444004	-0.987055	-0.066038	0.146156
619	698854562													0.694920	-0.618251	-0.103273	-0.104582	-0.449737	-0.887017	0.125738	-0.890730	0.436795	-0.986536	-0.065851	0.149703
620	698871229													0.504537	-0.374604	-0.174394	-0.109780	-0.441569	-0.890486	0.126249	-0.894839	0.428163	-0.985905	-0.065419	0.153983
621	698887896													0.393597	0.023087	-0.130930	-0.115372	-0.433459	-0.893758	0.126932	-0.898823	0.419530	-0.985179	-0.065045	0.158719
622	698904563													0.117265	0.370030	0.037272	-0.121128	-0.426554	-0.896315	0.128012	-0.902136	0.412025	-0.984348	-0.064831	0.163878
623	698921230													-0.080087	0.701097	0.184940	-0.126552	-0.421470	-0.897969	0.129549	-0.904516	0.406285	-0.983464	-0.064915	0.169069
624	698937897													0.047623	0.972297	0.293172	-0.131968	-0.417647	-0.898974	0.131424	-0.906272	0.401745	-0.982503	-0.065130	0.174488
625	698954564													-0.046655	0.949939	0.184218	-0.136875	-0.415170	-0.899388	0.133874	-0.907356	0.398475	-0.981500	-0.065863	0.179775
626	698971231													-0.150599	1.008322	0.145739	-0.141236	-0.413528	-0.899470	0.136625	-0.908026	0.396009	-0.980503	-0.066959	0.184745
627	698987898													-0.261001	0.884586	0.100677	-0.145292	-0.412191	-0.899438	0.139700	-0.908523	0.393788	-0.979476	-0.068437	0.189585
628	699004565													-0.417544	0.507242	-0.007891	-0.149202	-0.409917	-0.899837	0.142743	-0.909420	0.390614	-0.978449	-0.070165	0.194200
629	699021232													-0.437096	0.150846	-0.128418	-0.153537	-0.405117	-0.901280	0.145289	-0.911437	0.384932	-0.977403	-0.071845	0.198798
630	699037899													-0.334657	-0.479351	-0.334349	-0.159088	-0.395848	-0.904431	0.146859	-0.915394	0.374815	-0.976281	-0.073195	0.203762
631	699054566													-0.350808	-1.063081	-0.433464	-0.166181	-0.381366	-0.909365	0.147417	-0.921432	0.359487	-0.975014	-0.074316	0.209345
632	699071233													-0.536953	-1.013356	-0.309366	-0.174434	-0.361985	-0.915718	0.147065	-0.929122	0.339270	-0.973625	-0.075489	0.215306
633	699087900													-0.281390	-0.585726	-0.031421	-0.183684	-0.339096	-0.922645	0.145992	-0.937616	0.315534	-0.972084	-0.076740	0.221730
634	699104567													0.290291	-0.096194	-0.020849	-0.194748	-0.313818	-0.929296	0.144570	-0.946273	0.289254	-0.970141	-0.078016	0.229653
635	699121234													0.633227	0.394105	0.078136	-0.207738	-0.288508	-0.934670	0.143144	-0.954195	0.262720	-0.967654	-0.079215	0.239521
636	699137901													0.700289	0.694995	0.105960	-0.221452	-0.266304	-0.938105	0.142591	-0.960493	0.238999	-0.964690	-0.080838	0.250676
637	699154568													0.402464	0.761817	0.081774	-0.235103	-0.248166	-0.939755	0.143047	-0.965162	0.219089	-0.961387	-0.082921	0.262411
638	699171235													-0.239806	0.600247	0.021027	-0.247154	-0.233782	-0.940352	0.144221	-0.968525	0.202880	-0.958183	-0.085476	0.273091
639	699187902													-0.588695	0.704086	-0.160706	-0.258519	-0.220641	-0.940471	0.145358	-0.971366	0.187933	-0.955007	-0.088121	0.283189
640	699204569													-0.577147	0.600684	-0.073385	-0.269878	-0.206613	-0.940466	0.146125	-0.974183	0.172088	-0.951742	-0.090983	0.293102
641	699221236													-0.942682	0.438790	0.159260	-0.280731	-0.191422	-0.940504	0.146451	-0.976978	0.155131	-0.948547	-0.094188	0.302302
642	699237903													-1.292731	0.651355	0.112786	-0.290904	-0.175499	-0.940519	0.146339	-0.979627	0.137533	-0.945494	-0.097626	0.310660
643	699254570													-1.204216	0.587325	0.079016	-0.300465	-0.159040	-0.940440	0.146459	-0.982000	0.119275	-0.942481	-0.101898	0.318349
644	699271237													-0.936733	0.277013	-0.007706	-0.309785	-0.141431	-0.940229	0.146816	-0.984130	0.099662	-0.939403	-0.107167	0.325634
645	699287904													-0.461283	-0.153935	-0.126354	-0.318598	-0.121780	-0.940035	0.146943	-0.986069	0.077941	-0.936431	-0.113300	0.332054
646	699304571													0.048501	-0.370889	-0.227250	-0.327772	-0.099066	-0.939549	0.146185	-0.987828	0.053158	-0.933379	-0.119924	0.338264
647	699321238													0.508006	-0.461751	-0.238214	-0.337828	-0.073671	-0.938320	0.144459	-0.989178	0.025653	-0.930056	-0.126883	0.344815
648	699337905													0.438225	-0.336401	-0.297470	-0.348851	-0.047286	-0.935984	0.142143	-0.989842	-0.002971	-0.926336	-0.134080	0.352029
649	699354572													0.244245	0.071998	-0.270897	-0.361188	-0.021427	-0.932247	0.139355	-0.989749	-0.031243	-0.922021	-0.141198	0.360472
650	699371239													0.097617	0.586770	-0.217129	-0.374136	0.002373	-0.927371	0.136299	-0.988997	-0.057518	-0.917303	-0.147919	0.369696
651	699387906													0.009095	0.996134	-0.174353	-0.386936	0.023214	-0.921814	0.133246	-0.987783	-0.080806	-0.912429	-0.154095	0.379116
652	699404573													-0.169020	0.828543	-0.207527	-0.398678	0.040805	-0.916183	0.130534	-0.986313	-0.100731	-0.907754	-0.159753	0.387895
653	699421240													-0.460657	0.482313	-0.395636	-0.409764	0.056513	-0.910439	0.127771	-0.984684	-0.118628	-0.903199	-0.164938	0.396268
654	699437907													-0.779160	0.164800	-0.521029	-0.420927	0.071419	-0.904278	0.124492	-0.982914	-0.135579	-0.898511	-0.169645	0.404844
655	699454574													-1.194778	0.288386	-0.543084	-0.432420	0.086493	-0.897514	0.120255	-0.980964	-0.152474	-0.893617	-0.173863	0.413788
656	699471241													-1.637914	0.570481	-0.396507	-0.443965	0.100826	-0.890353	0.115745	-0.978871	-0.168565	-0.888537	-0.177891	0.422914
657	699487908													-2.291829	0.766642	-0.247605	-0.454074	0.114113	-0.883626	0.111621	-0.976664	-0.183487	-0.883944	-0.181948	0.430741
658	699504575													-2.941421	0.890199	-0.385659	-0.462254	0.126876	-0.877624	0.107872	-0.974315	-0.197672	-0.880162	-0.186046	0.436695
659	699521242													-3.570899	0.765325	-0.502784	-0.468881	0.141136	-0.871912	0.103344	-0.971605	-0.212848	-0.877194	-0.189908	0.440982
660	699537909													-3.960634	0.426418	-0.847500	-0.476377	0.158578	-0.864823	0.096719	-0.968181	-0.230806	-0.873905	-0.193596	0.445882
661	699554576													-3.651812	0.390088	-0.770226	-0.483972	0.177153	-0.856964	0.089552	-0.964127	-0.249881	-0.870489	-0.197678	0.450746
662	699571243													-3.498843	0.782147	-0.030660	-0.492001	0.196285	-0.848179	0.081833	-0.959512	-0.269519	-0.866740	-0.202013	0.456018
663	699587910													-3.873914	1.090927	0.780627	-0.496758	0.215688	-0.840661	0.073992	-0.954575	-0.288637	-0.864729	-0.205585	0.458233
664	699604577													-4.526941	1.317382	1.084680	-0.500599	0.230519	-0.834423	0.068032	-0.950437	-0.303383	-0.863002	-0.208640	0.460105
665	699621244													-5.558451	1.354408	1.387756	-0.499678	0.238925	-0.832608	0.065717	-0.947981	-0.311471	-0.863715	-0.210352	0.457984
666	699637911													-5.038984	0.959403	1.596886	-0.492873	0.242748	-0.835554	0.066115	-0.947070	-0.314145	-0.867586	-0.210076	0.450736
667	699654578													-4.895200	-0.726148	0.902485	-0.481812	0.242219	-0.842132	0.068969	-0.947573	-0.312006	-0.873556	-0.208410	0.439847
668	699671245													-5.100860	-3.342164	0.149809	-0.464545	0.236407	-0.853411	0.074439	-0.949872	-0.303648	-0.882415	-0.204585	0.423660
669	699687912													-3.384598	-3.889225	0.558093	-0.441510	0.228484	-0.867677	0.078584	-0.953471	-0.291063	-0.893808	-0.196693	0.403012
670	699704579													-1.963839	-3.435517	0.846117	-0.412784	0.222654	-0.883196	0.078868	-0.957282	-0.278193	-0.907408	-0.184489	0.377590
671	699721246													-1.401880	-2.892683	0.806217	-0.379882	0.221946	-0.898014	0.074182	-0.960354	-0.268734	-0.922056	-0.168704	0.348357
672	699737913													-0.447332	-2.218335	0.916442	-0.345257	0.225697	-0.910966	0.065395	-0.962508	-0.263252	-0.936227	-0.150462	0.317554
673	699754580													0.168218	-1.229250	1.313567	-0.309422	0.231505	-0.922314	0.054130	-0.964052	-0.260141	-0.949383	-0.130418	0.285768
674	699771247													0.704269	-0.382878	1.894534	-0.272261	0.236667	-0.932664	0.042932	-0.965327	-0.257487	-0.961265	-0.110144	0.252660
675	699787914													1.045691	0.341884	2.077169	-0.232854	0.237031	-0.943184	0.033683	-0.967295	-0.251406	-0.971928	-0.090310	0.217255
676	699804581													1.470449	1.190770	2.049409	-0.192655	0.230110	-0.953904	0.026558	-0.970536	-0.239487	-0.980907	-0.071472	0.180867
677	699821248													1.720171	1.694462	1.725183	-0.153352	0.218379	-0.963740	0.020196	-0.974379	-0.224003	-0.987965	-0.053815	0.145013
678	699837915													1.780119	1.656231	1.285329	-0.115939	0.203824	-0.972118	0.015153	-0.978241	-0.206915	-0.993141	-0.038720	0.110328
679	699854582													2.356582	2.010147	0.813570	-0.083709	0.188551	-0.978489	0.010410	-0.981717	-0.190063	-0.996436	-0.026096	0.080215
680	699871249													3.014382	1.463070	0.897497	-0.056702	0.174278	-0.983063	0.006282	-0.984565	-0.174907	-0.998371	-0.016093	0.054732
681	699887916													2.936476	0.966381	0.803243	-0.031003	0.163486	-0.986058	0.002468	-0.986517	-0.163639	-0.999516	-0.007506	0.030182
682	699904583													2.940587	0.859112	0.419038	-0.004706	0.156558	-0.987657	-0.000830	-0.987669	-0.156556	-0.999989	0.000083	0.004778
683	699921250													2.826868	1.396939	-0.072892	0.020199	0.152476	-0.988101	-0.001966	-0.988294	-0.152546	-0.999794	0.005024	-0.019663
684	699937917													2.573319	1.863137	-0.729176	0.043235	0.148160	-0.988018	-0.001458	-0.988932	-0.148361	-0.999064	0.007855	-0.042540
685	699954584													2.404086	1.831717	-1.176846	0.065007	0.140452	-0.987951	-0.000610	-0.990039	-0.140789	-0.997885	0.009755	-0.064273
686	699971251													2.428575	1.862308	-1.446848	0.085481	0.126157	-0.988321	-0.000431	-0.991947	-0.126657	-0.996340	0.011252	-0.084738
687	699987918													2.539658	1.584074	-1.575792	0.104562	0.105754	-0.988880	-0.000728	-0.994322	-0.106413	-0.994518	0.011846	-0.103891
688	700004585													2.554399	0.948616	-1.523686	0.121905	0.082477	-0.989109	-0.001702	-0.996523	-0.083305	-0.992540	0.011839	-0.121340
689	700021252													2.481645	0.254654	-1.429299	0.137803	0.059507	-0.988670	-0.004364	-0.998147	-0.060686	-0.990450	0.012677	-0.137288
690	700037919													2.222604	-0.299839	-1.369196	0.152450	0.039757	-0.987511	-0.008474	-0.999101	-0.041532	-0.988275	0.014700	-0.151976
691	700054586													2.037086	-0.673952	-1.272524	0.165560	0.025671	-0.985865	-0.012998	-0.999518	-0.028209	-0.986114	0.017484	-0.165147
692	700071253													1.808116	-0.579346	-1.199789	0.177517	0.018075	-0.983952	-0.017018	-0.999625	-0.021433	-0.983971	0.020550	-0.177142
693	700087920													1.537131	-0.288183	-1.341501	0.188461	0.016138	-0.981948	-0.019540	-0.999605	-0.020179	-0.981886	0.022990	-0.188072
694	700104587													1.295096	-0.084463	-1.261482	0.198106	0.018471	-0.980006	-0.019933	-0.999540	-0.022868	-0.979978	0.024065	-0.197647
695	700121254													1.129335	0.248342	-1.156987	0.206740	0.022623	-0.978134	-0.018547	-0.999462	-0.027036	-0.978220	0.023731	-0.206209
696	700137921													1.144922	0.321125	-1.052254	0.214592	0.026500	-0.976344	-0.016291	-0.999396	-0.030706	-0.976568	0.022495	-0.214031
697	700154588													1.034511	0.410583	-1.063463	0.221962	0.028742	-0.974631	-0.013471	-0.999380	-0.032540	-0.974962	0.020352	-0.221438
698	700171255													0.923159	0.492390	-1.182705	0.228547	0.028936	-0.973103	-0.009716	-0.999441	-0.032001	-0.973484	0.016768	-0.228138
699	700187922													0.860550	0.882473	-1.253759	0.233245	0.027751	-0.972022	-0.004977	-0.999546	-0.029731	-0.972405	0.011773	-0.233001
700	700204589													0.732858	1.045739	-1.328747	0.235162	0.025370	-0.971625	0.000113	-0.999660	-0.026075	-0.971956	0.006022	-0.235085
701	700221256													0.556051	0.888349	-1.369851	0.233811	0.021255	-0.972050	0.004269	-0.999774	-0.020834	-0.972273	0.000722	-0.233849
702	700237923													0.228261	0.583159	-1.217694	0.229207	0.013999	-0.973277	0.006374	-0.999897	-0.012880	-0.973357	-0.003252	-0.229273
703	700254590													-0.076701	0.508466	-0.736003	0.221374	0.001851	-0.975187	0.005465	-0.999985	-0.000657	-0.975174	-0.005184	-0.221380
704	700271257													-0.293617	0.547336	-0.224433	0.211110	-0.018813	-0.977281	0.000183	-0.999814	0.019287	-0.977462	-0.004250	-0.211067
705	700287924													-0.591575	0.743653	0.187900	0.199959	-0.050113	-0.978522	-0.009679	-0.998743	0.049171	-0.979756	-0.000361	-0.200193
706	700304591													-0.851231	0.945851	0.479748	0.192476	-0.089554	-0.977207	-0.022034	-0.995970	0.086934	-0.981054	0.004799	-0.193673
707	700321258													-1.039741	0.561630	0.543527	0.188159	-0.131122	-0.973346	-0.034483	-0.991319	0.126877	-0.981533	0.009691	-0.191047
708	700337925													-1.308389	-0.027689	0.465125	0.185388	-0.170669	-0.967731	-0.044694	-0.985248	0.165196	-0.981648	0.012626	-0.190281
709	700354592													-1.263807	-0.403279	-0.090267	0.182954	-0.205977	-0.961302	-0.051343	-0.978473	0.199885	-0.981780	0.012787	-0.189591
710	700371259													-0.857202	-0.696782	-0.334179	0.180986	-0.234929	-0.955014	-0.054488	-0.971954	0.228770	-0.981975	0.010633	-0.188711
711	700387926													-0.401827	-1.052996	-0.449744	0.180673	-0.256282	-0.949567	-0.055210	-0.966575	0.250368	-0.981992	0.007191	-0.188783
712	700404593													-0.138583	-1.098084	-0.516480	0.183029	-0.270828	-0.945068	-0.054097	-0.962624	0.265382	-0.981618	0.002552	-0.190839
713	700421260													-2.116195	-0.740167	1.030248	0.190203	-0.287514	-0.938700	-0.054589	-0.957773	0.282295	-0.980226	-0.002451	-0.197866
714	700437927													-2.592620	-0.563990	-0.177235	0.196475	-0.314336	-0.928758	-0.054980	-0.949262	0.309644	-0.978966	-0.009775	-0.203788
715	700454594													-0.030595	-0.906252	4.162302	0.192903	-0.332020	-0.923337	-0.049561	-0.943107	0.328775	-0.979965	-0.017660	-0.198383
716	700471261													0.889294	-1.125992	7.148285	0.190297	-0.342181	-0.920162	-0.041228	-0.939249	0.340752	-0.980860	-0.026908	-0.192844
717	700487928													-0.453869	-1.192829	2.043779	0.187390	-0.359715	-0.914052	-0.035093	-0.932393	0.359739	-0.981659	-0.035334	-0.187345
718	700504595													0.513396	-1.888254	-1.579235	0.176141	-0.373235	-0.910862	-0.026223	-0.926781	0.374686	-0.984016	-0.042112	-0.173032
719	700521262													1.645384	-3.576044	-1.040832	0.159319	-0.369622	-0.915422	-0.013356	-0.927988	0.372371	-0.987137	-0.047099	-0.152783
720	700537929													1.972063	-4.285289	-1.262615	0.146731	-0.344520	-0.927241	0.000920	-0.937339	0.348418	-0.989176	-0.051976	-0.137220
721	700554596													3.026132	-3.969586	-2.053177	0.141884	-0.304930	-0.941747	0.015444	-0.950574	0.310115	-0.989763	-0.058544	-0.130162
722	700571263													3.899945	-1.700477	-1.584725	0.139685	-0.266671	-0.953612	0.028678	-0.961560	0.273094	-0.989781	-0.065494	-0.126668
723	700587930													3.837240	1.539897	-0.524099	0.132258	-0.243741	-0.960780	0.038120	-0.967327	0.250649	-0.990482	-0.069775	-0.118645
724	700604597													3.520451	3.610700	0.066572	0.118883	-0.238850	-0.963752	0.044186	-0.968401	0.245452	-0.991925	-0.071765	-0.104572
725	700621264													3.184706	3.908127	0.121883	0.105313	-0.248749	-0.962825	0.050194	-0.965646	0.254968	-0.993171	-0.075180	-0.089210
726	700637931													1.967823	1.972976	0.356718	0.095899	-0.264962	-0.959478	0.056236	-0.960939	0.270986	-0.993801	-0.079944	-0.077253
727	700654598													0.348654	0.237868	0.326049	0.088970	-0.278145	-0.956410	0.061289	-0.956869	0.283980	-0.994147	-0.083883	-0.068086
728	700671265													-0.357941	0.028395	0.098656	0.081847	-0.286847	-0.954474	0.065526	-0.954066	0.292343	-0.994489	-0.086470	-0.059291
729	700687932													-0.278899	0.767962	-0.086303	0.073997	-0.294534	-0.952772	0.069093	-0.951581	0.299532	-0.994862	-0.087994	-0.050064
730	700704599													-0.124858	1.224462	-0.165030	0.065623	-0.304967	-0.950099	0.072246	-0.948201	0.309347	-0.995226	-0.088941	-0.040191
731	700721266													0.099134	1.445215	-0.107992	0.057737	-0.319809	-0.945721	0.074826	-0.943251	0.323542	-0.995524	-0.089445	-0.030531
732	700737933													0.377947	1.245463	0.115351	0.050632	-0.337158	-0.940086	0.077425	-0.937135	0.340269	-0.995712	-0.090015	-0.021344
733	700754600													0.543040	0.451456	0.332468	0.045301	-0.353404	-0.934373	0.080800	-0.930973	0.356035	-0.995700	-0.091626	-0.013619
734	700771267													0.158393	-0.452770	0.260677	0.042063	-0.365890	-0.929707	0.084591	-0.925885	0.368213	-0.995527	-0.094133	-0.007995
735	700787934													-0.442520	-0.730722	0.265723	0.039646	-0.374045	-0.926563	0.087595	-0.922421	0.376121	-0.995367	-0.096074	-0.003806
736	700804601													-0.353897	0.005751	0.278841	0.036857	-0.376662	-0.925617	0.089998	-0.921232	0.378461	-0.995260	-0.097252	-0.000056
737	700821268													0.558237	0.847953	0.328517	0.031835	-0.374004	-0.926881	0.092314	-0.922286	0.375321	-0.995221	-0.097513	0.005165
738	700837935													1.136587	0.973351	0.103462	0.025197	-0.369042	-0.929071	0.094542	-0.924321	0.369719	-0.995202	-0.097152	0.011600
739	700854602													1.202055	0.857931	-0.062593	0.018160	-0.364022	-0.931213	0.097100	-0.926322	0.364004	-0.995109	-0.097031	0.018524
740	700871269													1.165348	0.850497	-0.163989	0.012438	-0.359829	-0.932935	0.100144	-0.927868	0.359209	-0.994895	-0.097895	0.024494
741	700887936													1.265874	1.133823	-0.247763	0.007591	-0.357273	-0.933969	0.102990	-0.928750	0.356114	-0.994653	-0.098892	0.029745
742	700904603													1.264116	1.196524	-0.323982	0.002425	-0.356880	-0.934147	0.105266	-0.928869	0.355136	-0.994441	-0.099195	0.035315
743	700921270													1.246776	1.029546	-0.255395	-0.003391	-0.357537	-0.933893	0.107042	-0.928662	0.355146	-0.994249	-0.098761	0.041420
744	700937937													1.445466	0.846020	-0.260013	-0.009776	-0.357899	-0.933709	0.108791	-0.928592	0.354798	-0.994017	-0.098110	0.048014
745	700954604													1.295435	0.504917	-0.184110	-0.016244	-0.359277	-0.933089	0.110373	-0.928154	0.355455	-0.993757	-0.097214	0.054732
746	700971271													0.836458	0.471607	-0.066320	-0.021863	-0.363365	-0.931390	0.111540	-0.926683	0.358911	-0.993519	-0.096041	0.060790
747	700987938													0.508822	0.760724	0.134785	-0.026640	-0.371039	-0.928235	0.112364	-0.923791	0.366038	-0.993310	-0.094549	0.066301
748	701004605													0.590650	1.178146	0.075710	-0.031434	-0.381896	-0.923671	0.113049	-0.919556	0.376347	-0.993092	-0.092590	0.072079
749	701021272													0.624638	1.211985	-0.073101	-0.036016	-0.396409	-0.917367	0.113841	-0.913615	0.390318	-0.992846	-0.090377	0.078033
750	701037939													0.842881	0.890600	-0.326329	-0.039963	-0.413906	-0.909442	0.114959	-0.906030	0.407301	-0.992566	-0.088272	0.083790
751	701054606													0.672167	0.394964	-0.308905	-0.043531	-0.432693	-0.900490	0.116049	-0.897432	0.425614	-0.992289	-0.085974	0.089280
752	701071273													0.131321	0.381730	-0.176661	-0.046106	-0.452814	-0.890412	0.116881	-0.887683	0.445374	-0.992075	-0.083538	0.093853
753	701087940													-0.131028	0.804592	0.019732	-0.047419	-0.474606	-0.878920	0.117447	-0.876455	0.466939	-0.991946	-0.081085	0.097302
754	701104607													-0.193092	0.938447	0.237386	-0.048327	-0.497232	-0.866271	0.117814	-0.864067	0.489395	-0.991859	-0.078407	0.100339
755	701121274													-0.698778	0.538909	0.331504	-0.048721	-0.520486	-0.852479	0.118258	-0.850495	0.512516	-0.991787	-0.075842	0.102988
756	701137941													-1.427181	0.408013	0.381246	-0.047780	-0.543356	-0.838141	0.118412	-0.836264	0.535389	-0.991814	-0.073665	0.104297
757	701154608													-1.641722	0.733212	0.557349	-0.045932	-0.563646	-0.824738	0.118201	-0.822876	0.555791	-0.991927	-0.071957	0.104420
758	701171275													-1.179776	0.898815	0.385172	-0.044371	-0.579861	-0.813506	0.118250	-0.811632	0.572075	-0.991992	-0.070814	0.104581
759	701187942													-0.631123	0.688781	0.207633	-0.044037	-0.591323	-0.805232	0.118967	-0.803382	0.583458	-0.991921	-0.070102	0.105726
760	701204609													-0.422113	0.427567	0.056853	-0.043685	-0.599282	-0.799345	0.119905	-0.797471	0.591324	-0.991824	-0.070013	0.106694
761	701221276													0.192728	0.092233	-0.039930	-0.043940	-0.603997	-0.795774	0.120481	-0.793934	0.595948	-0.991743	-0.069689	0.107655
762	701237943													0.420789	-0.417221	-0.015003	-0.044860	-0.606424	-0.793875	0.120618	-0.792149	0.598290	-0.991685	-0.068916	0.108681
763	701254610													0.568828	-0.546650	-0.111910	-0.046182	-0.606977	-0.793376	0.120543	-0.791806	0.598759	-0.991633	-0.067984	0.109734
764	701271277													0.876833	-0.413691	-0.037809	-0.047856	-0.606045	-0.793990	0.120126	-0.792623	0.597761	-0.991605	-0.066772	0.110733
765	701287944													0.885992	-0.304627	-0.037395	-0.049881	-0.604978	-0.794678	0.119502	-0.793568	0.596632	-0.991580	-0.065205	0.111880
766	701304611													0.600653	-0.263707	-0.057199	-0.052312	-0.605321	-0.794260	0.118536	-0.793490	0.596927	-0.991571	-0.062922	0.113261
767	701321278													0.260566	-0.047028	0.025882	-0.055073	-0.607244	-0.792604	0.117003	-0.792265	0.598854	-0.991603	-0.059756	0.114682
768	701337945													0.124497	0.413503	0.086554	-0.057775	-0.610416	-0.789971	0.115112	-0.790089	0.602087	-0.991671	-0.056150	0.115913
769	701354612													0.148443	0.883785	0.140244	-0.060139	-0.615006	-0.786226	0.113198	-0.786772	0.606775	-0.991751	-0.052508	0.116933
770	701371279													0.042547	1.214201	0.106065	-0.062224	-0.621931	-0.780596	0.111478	-0.781548	0.613804	-0.991817	-0.048826	0.117963
771	701387946													-0.256337	1.393514	0.192287	-0.063117	-0.632022	-0.772376	0.109998	-0.773609	0.624043	-0.991926	-0.045572	0.118349
772	701404613													-0.188053	1.401590	0.200455	-0.062531	-0.644334	-0.762184	0.108588	-0.763537	0.636569	-0.992118	-0.042959	0.117712
773	701421280													0.071238	1.024103	0.100077	-0.061604	-0.657492	-0.750939	0.107176	-0.752375	0.649958	-0.992330	-0.040442	0.116817
774	701437947													0.324196	0.365206	-0.053473	-0.061316	-0.669361	-0.740403	0.105940	-0.741973	0.662007	-0.992480	-0.037847	0.116407
775	701454614													0.104338	-0.266084	-0.101314	-0.061780	-0.679116	-0.731426	0.104526	-0.733199	0.671933	-0.992601	-0.034941	0.116282
776	701471281													0.151813	-0.297840	-0.034924	-0.062543	-0.686329	-0.724597	0.102371	-0.726600	0.679391	-0.992778	-0.031686	0.115704
777	701487948													0.619190	-0.145229	0.005214	-0.063675	-0.690499	-0.720525	0.099569	-0.722784	0.683864	-0.992991	-0.028197	0.114775
778	701504615													0.823989	-0.129370	-0.123889	-0.065463	-0.692812	-0.718141	0.096687	-0.720702	0.686469	-0.993160	-0.024497	0.114166
779	701521282													0.823451	0.048068	-0.114417	-0.068007	-0.693873	-0.716879	0.093495	-0.719813	0.687843	-0.993294	-0.020247	0.113826
780	701537949													0.845066	0.311307	0.030693	-0.070692	-0.693640	-0.716844	0.089731	-0.720151	0.687991	-0.993454	-0.015688	0.113150
781	701554616													0.954757	0.446470	-0.030344	-0.073376	-0.692299	-0.717870	0.085444	-0.721528	0.687093	-0.993637	-0.010921	0.112096
782	701571283													0.837242	0.530631	-0.110633	-0.076097	-0.690433	-0.719383	0.080821	-0.723372	0.685712	-0.993820	-0.005960	0.110848
783	701587950													0.756151	0.755474	-0.069993	-0.078882	-0.688096	-0.721319	0.075649	-0.725619	0.683926	-0.994010	-0.000618	0.109292
784	701604617													0.712082	1.074701	-0.043551	-0.081217	-0.685483	-0.723545	0.070171	-0.728074	0.681897	-0.994223	0.004610	0.107233
785	701621284													0.766791	1.447227	-0.093960	-0.082834	-0.683162	-0.725554	0.064454	-0.730204	0.680182	-0.994477	0.009577	0.104518
786	701637951													0.911991	1.513680	-0.023256	-0.083623	-0.681893	-0.726656	0.058632	-0.731314	0.679516	-0.994771	0.014218	0.101135
787	701654618													0.923969	1.307906	-0.030248	-0.083936	-0.681819	-0.726690	0.052545	-0.731277	0.680054	-0.995085	0.018897	0.097206
788	701671285													0.631418	1.079524	-0.063511	-0.083886	-0.682950	-0.725633	0.046167	-0.730081	0.681799	-0.995405	0.023693	0.092774
789	701687952													0.524938	0.881656	-0.077427	-0.082467	-0.685421	-0.723462	0.039235	-0.727605	0.684874	-0.995821	0.028094	0.086895
790	701704619													0.617714	0.675096	-0.111737	-0.080398	-0.689033	-0.720256	0.031867	-0.724003	0.689060	-0.996253	0.032447	0.080166
791	701721286													0.674351	0.565703	-0.194340	-0.077655	-0.693285	-0.716467	0.024541	-0.719749	0.693801	-0.996678	0.036294	0.072907
792	701737953													0.738440	0.614628	-0.221236	-0.074932	-0.697910	-0.712255	0.017134	-0.715059	0.698854	-0.997041	0.040162	0.065539
793	701754620													0.880541	0.526926	-0.274243	-0.072420	-0.702431	-0.708058	0.009621	-0.710381	0.703751	-0.997328	0.044154	0.058204
794	701771287													0.799778	0.477941	-0.337400	-0.070394	-0.706773	-0.703930	0.001684	-0.705764	0.708445	-0.997518	0.048685	0.050872
795	701787954													0.886860	0.567092	-0.276455	-0.068950	-0.710701	-0.700107	-0.006974	-0.701417	0.712717	-0.997596	0.054024	0.043406
796	701804621													0.853703	0.659786	-0.189849	-0.068173	-0.714102	-0.696714	-0.016155	-0.697457	0.716445	-0.997543	0.060098	0.036012
797	701821288													0.581912	0.778507	-0.081558	-0.067791	-0.717253	-0.693507	-0.025658	-0.693623	0.719881	-0.997370	0.066596	0.028618
798	701837955													0.206956	1.148421	0.040821	-0.067343	-0.720348	-0.690336	-0.035457	-0.689741	0.723187	-0.997100	0.073179	0.020908
799	701854622													-0.331968	1.861196	0.314175	-0.065768	-0.723923	-0.686739	-0.045435	-0.685343	0.726802	-0.996800	0.079003	0.012182
800	701871289													-1.029456	2.893185	0.795263	-0.061828	-0.729909	-0.680743	-0.055740	-0.678458	0.732521	-0.996529	0.083235	0.001262
801	701887956													-1.344572	3.973130	1.104558	-0.054392	-0.739591	-0.670855	-0.065653	-0.667747	0.741487	-0.996359	0.084375	-0.012237
802	701904623													-1.789183	4.729131	1.098094	-0.043437	-0.752601	-0.657043	-0.074129	-0.653423	0.753355	-0.996302	0.081429	-0.027407
803	701921290													-2.410395	5.107589	0.791779	-0.030460	-0.768187	-0.639500	-0.080555	-0.635830	0.767614	-0.996285	0.074896	-0.042514
804	701937957													-2.486772	5.202464	0.667099	-0.015652	-0.784998	-0.619301	-0.085592	-0.616051	0.783042	-0.996207	0.065264	-0.057547
805	701954624													-2.043458	4.922727	0.859427	0.000075	-0.801907	-0.597449	-0.090700	-0.594992	0.798597	-0.995878	0.054129	-0.072777
806	701971291													-0.222613	3.546170	0.571732	0.015581	-0.817870	-0.575192	-0.097023	-0.573784	0.813239	-0.995160	0.043136	-0.088293
807	701987958													1.286675	1.782957	0.500989	0.029471	-0.830301	-0.556536	-0.104447	-0.556288	0.824400	-0.994094	0.033832	-0.103117
808	702004625													1.990523	0.728568	0.370667	0.041614	-0.840030	-0.540942	-0.111045	-0.541945	0.833045	-0.992944	0.025403	-0.115833
809	702021292													2.737978	0.538387	0.689599	0.049808	-0.849683	-0.524937	-0.115848	-0.526957	0.841960	-0.992017	0.018876	-0.124681
810	702037959													3.844454	0.787256	0.484353	0.053647	-0.862323	-0.503509	-0.118409	-0.506171	0.854266	-0.991515	0.013791	-0.129262
811	702054626													5.157293	0.855614	-0.041682	0.054222	-0.878899	-0.473915	-0.118618	-0.476922	0.870905	-0.991458	0.008993	-0.130113
812	702071293													5.769651	0.344374	-0.354346	0.054256	-0.898380	-0.435854	-0.115650	-0.439213	0.890908	-0.991807	0.002069	-0.127728
813	702087960													4.906525	-0.280252	-0.542841	0.055376	-0.918663	-0.391142	-0.109906	-0.394970	0.912096	-0.992398	-0.007520	-0.122838
814	702104627													3.359383	-0.599374	0.018131	0.059693	-0.937581	-0.342607	-0.103327	-0.347179	0.932089	-0.992855	-0.020238	-0.117602
815	702121294													2.262847	-0.528695	0.459249	0.067639	-0.953642	-0.293243	-0.096511	-0.298792	0.949426	-0.993031	-0.035917	-0.112247
816	702137961													1.471916	-0.439808	0.429495	0.078132	-0.966185	-0.245726	-0.089173	-0.252264	0.963541	-0.992947	-0.053371	-0.105867
817	702154628													1.213389	-0.486245	0.151245	0.089672	-0.975242	-0.202142	-0.081251	-0.209447	0.974438	-0.992652	-0.070956	-0.098021
818	702171295													1.441670	-0.467153	-0.128831	0.101843	-0.981279	-0.163459	-0.072439	-0.171192	0.982571	-0.992160	-0.088227	-0.088517
819	702187962													1.784532	-0.507985	-0.159974	0.113891	-0.985056	-0.129205	-0.063016	-0.136952	0.988571	-0.991493	-0.104447	-0.077672
820	702204629													2.094518	-0.588548	-0.016920	0.125573	-0.987186	-0.098462	-0.053190	-0.105804	0.992963	-0.990658	-0.119452	-0.065795
821	702221296													2.187656	-0.730592	-0.192243	0.137955	-0.987989	-0.069610	-0.043086	-0.076202	0.996161	-0.989501	-0.134426	-0.053081
822	702237963													1.743031	-1.057246	-0.227781	0.150102	-0.987796	-0.041570	-0.033063	-0.047038	0.998346	-0.988118	-0.148479	-0.039720
823	702254630													1.486299	-1.016387	-0.530910	0.160998	-0.986875	-0.012519	-0.023200	-0.016465	0.999595	-0.986682	-0.160642	-0.025547
824	702271297													1.342696	-1.317717	-0.219556	0.170459	-0.985178	0.019201	-0.014131	0.017040	0.999755	-0.985263	-0.170688	-0.011016
825	702287964													1.108581	-1.436565	-0.086175	0.179478	-0.982287	0.053848	-0.006133	0.053618	0.998543	-0.983743	-0.179547	0.003599
826	702304631													0.809322	-1.409447	-0.105717	0.188165	-0.977770	0.092516	0.001117	0.094411	0.995533	-0.982137	-0.187221	0.018857
827	702321298													0.420466	-1.486295	-0.218163	0.196141	-0.971384	0.133945	0.007133	0.138008	0.990405	-0.980550	-0.193304	0.033998
828	702337965													0.004297	-1.338755	-0.446753	0.203904	-0.962842	0.177084	0.012328	0.183395	0.982962	-0.978913	-0.198246	0.049265
829	702354632													-0.288591	-1.259809	-0.438226	0.210757	-0.952433	0.220120	0.015973	0.228503	0.973412	-0.977408	-0.201638	0.063372
830	702371299													-0.346307	-1.029555	-0.537232	0.217395	-0.940237	0.262094	0.018119	0.272357	0.962026	-0.975916	-0.204391	0.076245
831	702387966													-0.516227	-0.822776	-0.599327	0.224299	-0.926405	0.302431	0.019442	0.314530	0.949048	-0.974326	-0.206991	0.088560
832	702404633													-0.627893	-0.663581	-0.560768	0.231064	-0.911393	0.340547	0.020265	0.354451	0.934855	-0.972727	-0.209110	0.100370
833	702421300													-0.672019	-0.681467	-0.607861	0.237473	-0.895679	0.375987	0.020877	0.391676	0.919866	-0.971170	-0.210594	0.111711
834	702437967													-0.731805	-0.707908	-0.719836	0.242787	-0.880095	0.408028	0.021936	0.425486	0.904699	-0.969832	-0.210698	0.122608
835	702454634													-0.926461	-0.509504	-0.914895	0.246713	-0.864959	0.437010	0.024001	0.456265	0.889520	-0.968791	-0.208968	0.133326
836	702471301													-1.037656	-0.127808	-1.033468	0.248822	-0.850424	0.463537	0.027152	0.484525	0.874356	-0.968169	-0.204973	0.143651
837	702487968													-1.097091	0.239244	-0.982149	0.248977	-0.835969	0.489047	0.030486	0.511462	0.858765	-0.968030	-0.198903	0.152828
838	702504635													-1.157451	0.492635	-0.963788	0.247255	-0.821055	0.514523	0.033123	0.537862	0.842382	-0.968384	-0.191240	0.160185
839	702521302													-1.254127	0.659010	-0.968749	0.244101	-0.805703	0.539683	0.034959	0.563467	0.825399	-0.969120	-0.182613	0.165710
840	702537969													-0.949764	0.978361	-0.750745	0.240772	-0.789612	0.564395	0.036047	0.588376	0.807784	-0.969912	-0.174147	0.170128
841	702554636													-0.276961	1.079166	-0.488673	0.238779	-0.771975	0.589101	0.036523	0.613359	0.788959	-0.970387	-0.166871	0.174652
842	702571303													0.343348	0.830140	-0.317979	0.237557	-0.752417	0.614358	0.036425	0.638918	0.768412	-0.970690	-0.160164	0.179186
843	702587970													0.632783	0.416680	-0.166162	0.235217	-0.731636	0.639830	0.036256	0.664446	0.746456	-0.971266	-0.152382	0.182816
844	702604637													0.639159	0.339570	0.260909	0.232240	-0.710860	0.663884	0.036318	0.688408	0.724414	-0.971980	-0.144127	0.185693
845	702621304													0.291838	0.693670	0.488263	0.232026	-0.691040	0.684564	0.036630	0.709478	0.703775	-0.972020	-0.138218	0.189930
846	702637971													-0.071164	1.195933	0.028678	0.233055	-0.673524	0.701463	0.037781	0.727052	0.685542	-0.971729	-0.133266	0.194890
847	702654638													0.055262	1.459993	-0.184978	0.233790	-0.658340	0.715493	0.040435	0.741833	0.669364	-0.971446	-0.127560	0.200054
