// Start Time: Unknown
// Update Rate: 100.0Hz
//Filter Profile: human (46.1)
// Option Flags: AHS Disabled ICC Disabled
// Firmware Version: 4.0.2
PacketCounter	SampleTimeFine	Year	Month	Day	Second	UTC_Nano	UTC_Year	UTC_Month	UTC_Day	UTC_Hour	UTC_Minute	UTC_Second	UTC_Valid	Acc_X	Acc_Y	Acc_Z	Mat[1][1]	Mat[1][2]	Mat[1][3]	Mat[2][1]	Mat[2][2]	Mat[2][3]	Mat[3][1]	Mat[3][2]	Mat[3][3]
1	682733566													-0.104010	-0.076979	0.088526	-0.156440	-0.402218	-0.902080	0.024716	-0.914633	0.403529	-0.987378	0.040832	0.153026
2	682750233													-0.011118	0.011229	0.076097	-0.156259	-0.401885	-0.902259	0.022691	-0.914700	0.403496	-0.987455	0.042577	0.152049
3	682766900													-0.012291	0.048618	0.064468	-0.156717	-0.401531	-0.902337	0.022233	-0.914829	0.403228	-0.987393	0.043131	0.152297
4	682783567													0.017007	0.023945	0.059917	-0.157343	-0.401145	-0.902400	0.022496	-0.915001	0.402825	-0.987288	0.043081	0.152993
5	682800234													0.097246	0.042361	0.066257	-0.158527	-0.400592	-0.902438	0.022909	-0.915242	0.402252	-0.987089	0.043094	0.154267
6	682816901													-0.019332	-0.128478	0.061696	-0.160305	-0.400533	-0.902151	0.023740	-0.915270	0.402140	-0.986782	0.043048	0.156231
7	682833568													-0.059758	-0.115553	0.061293	-0.162040	-0.399711	-0.902205	0.023565	-0.915595	0.401411	-0.986503	0.043784	0.157783
8	682850235													0.000041	0.203363	0.081781	-0.163670	-0.398860	-0.902288	0.023127	-0.915921	0.400691	-0.986244	0.044714	0.159133
9	682866902													0.075686	0.327985	0.126470	-0.165334	-0.398581	-0.902107	0.023473	-0.916027	0.400429	-0.985958	0.045030	0.160806
10	682883569													0.140227	0.273592	0.159571	-0.166985	-0.399496	-0.901398	0.024498	-0.915634	0.401267	-0.985655	0.044922	0.162684
11	682900236													0.022615	0.069791	0.137960	-0.168747	-0.400699	-0.900536	0.025705	-0.915116	0.402370	-0.985324	0.044751	0.164723
12	682916903													-0.003704	0.006643	0.119458	-0.170386	-0.401291	-0.899963	0.026470	-0.914853	0.402919	-0.985022	0.044830	0.166500
13	682933570													0.066583	0.092165	0.110546	-0.171918	-0.401327	-0.899656	0.026868	-0.914824	0.402959	-0.984745	0.045104	0.168058
14	682950237													0.091395	0.160405	0.107274	-0.173519	-0.401596	-0.899228	0.027209	-0.914686	0.403249	-0.984455	0.045504	0.169642
15	682966904													0.052151	0.036863	0.121510	-0.175171	-0.401897	-0.898774	0.027512	-0.914530	0.403581	-0.984154	0.045968	0.171256
16	682983571													0.035335	0.061486	0.143597	-0.176863	-0.402219	-0.898298	0.027567	-0.914353	0.403980	-0.983849	0.046685	0.172803
17	683000238													0.055167	0.128454	0.166183	-0.178582	-0.402498	-0.897833	0.027410	-0.914182	0.404376	-0.983543	0.047604	0.174289
18	683016905													0.130683	0.150602	0.202657	-0.180138	-0.402993	-0.897300	0.027105	-0.913910	0.405011	-0.983268	0.048637	0.175553
19	683033572													0.117614	0.102230	0.177696	-0.181562	-0.403390	-0.896834	0.026616	-0.913674	0.405576	-0.983019	0.049767	0.176625
20	683050239													0.084378	0.034696	0.133290	-0.182827	-0.403730	-0.896424	0.025928	-0.913455	0.406113	-0.982803	0.051006	0.177472
21	683066906													0.050835	0.055676	0.114895	-0.183944	-0.403638	-0.896237	0.024946	-0.913419	0.406256	-0.982620	0.052371	0.178087
22	683083573													0.117120	0.122214	0.080144	-0.184950	-0.403503	-0.896091	0.023769	-0.913391	0.406388	-0.982460	0.053862	0.178523
23	683100240													0.119072	0.073842	0.116188	-0.185903	-0.403734	-0.895789	0.022557	-0.913195	0.406898	-0.982309	0.055437	0.178873
24	683116907													0.038619	-0.019137	0.122469	-0.186783	-0.403855	-0.895552	0.021167	-0.913038	0.407325	-0.982173	0.057125	0.179088
25	683133574													-0.012052	-0.021887	0.119467	-0.187524	-0.403678	-0.895477	0.019661	-0.913009	0.407465	-0.982063	0.058803	0.179148
26	683150241													-0.093032	-0.036172	0.141035	-0.188221	-0.403030	-0.895622	0.017978	-0.913183	0.407154	-0.981962	0.060534	0.179126
27	683166908													-0.018641	0.055775	0.074229	-0.188742	-0.401787	-0.896071	0.016068	-0.913613	0.406267	-0.981895	0.062281	0.178893
28	683183575													0.019225	0.083271	0.059003	-0.189289	-0.401013	-0.896302	0.014269	-0.913832	0.405842	-0.981818	0.064033	0.178700
29	683200242													0.035043	0.046984	0.150328	-0.189824	-0.400678	-0.896339	0.012508	-0.913851	0.405857	-0.981738	0.065830	0.178483
30	683216909													-0.026729	0.012905	0.139197	-0.190408	-0.400383	-0.896347	0.010690	-0.913843	0.405927	-0.981647	0.067710	0.178283
31	683233576													-0.040824	0.046658	0.112860	-0.190995	-0.400071	-0.896362	0.008779	-0.913832	0.405997	-0.981552	0.069674	0.178050
32	683250243													-0.121229	0.057596	0.050682	-0.191539	-0.399606	-0.896453	0.006804	-0.913882	0.405922	-0.981462	0.071650	0.177762
33	683266910													-0.056793	0.056698	0.058169	-0.192024	-0.399058	-0.896593	0.004786	-0.913965	0.405765	-0.981379	0.073626	0.177413
34	683283577													-0.080142	0.044914	0.092832	-0.192597	-0.398517	-0.896711	0.002744	-0.914035	0.405626	-0.981274	0.075662	0.177134
35	683300244													-0.157762	-0.073944	0.106784	-0.193263	-0.397822	-0.896876	0.000660	-0.914162	0.405348	-0.981147	0.077747	0.176937
36	683316911													-0.179048	-0.064221	0.042557	-0.194034	-0.396673	-0.897219	-0.001473	-0.914482	0.404624	-0.980994	0.079832	0.176856
37	683333578													-0.194435	0.008887	0.111073	-0.194869	-0.395359	-0.897618	-0.003554	-0.914871	0.403730	-0.980823	0.081865	0.176875
38	683350245													-0.099464	0.175958	0.108309	-0.195836	-0.393831	-0.898079	-0.005667	-0.915342	0.402637	-0.980620	0.083940	0.177025
39	683366912													-0.115209	0.143835	0.165346	-0.196941	-0.392919	-0.898237	-0.007678	-0.915534	0.402168	-0.980385	0.086100	0.177289
40	683383579													-0.072227	0.034871	0.151229	-0.198029	-0.391735	-0.898514	-0.009816	-0.915829	0.401448	-0.980147	0.088319	0.177516
41	683400246													-0.117887	-0.016158	0.085953	-0.199142	-0.390411	-0.898844	-0.012051	-0.916171	0.400607	-0.979896	0.090610	0.177743
42	683416913													-0.105963	0.005148	0.017385	-0.200279	-0.388727	-0.899322	-0.014414	-0.916651	0.399428	-0.979633	0.092959	0.177983
43	683433580													-0.139495	0.040280	0.065701	-0.201526	-0.386937	-0.899815	-0.016754	-0.917167	0.398151	-0.979340	0.095314	0.178350
44	683450247													-0.173838	0.032289	0.132826	-0.202838	-0.385049	-0.900330	-0.019045	-0.917718	0.396776	-0.979027	0.097628	0.178815
45	683466914													-0.199979	0.054511	0.101102	-0.204174	-0.382994	-0.900905	-0.021296	-0.918335	0.395230	-0.978703	0.099881	0.179344
46	683483581													-0.106309	0.181453	0.112824	-0.205565	-0.381014	-0.901427	-0.023545	-0.918907	0.393772	-0.978360	0.102170	0.179924
47	683500248													-0.053980	0.170794	0.094324	-0.207180	-0.379694	-0.901615	-0.025712	-0.919179	0.392999	-0.977965	0.104604	0.180673
48	683516915													-0.119863	0.105016	0.171125	-0.208863	-0.378266	-0.901827	-0.027998	-0.919474	0.392152	-0.977544	0.107155	0.181454
49	683533582													-0.105367	0.143988	0.126172	-0.210435	-0.376955	-0.902010	-0.030352	-0.919706	0.391432	-0.977136	0.109749	0.182098
50	683550249													-0.134829	0.058596	0.100698	-0.212050	-0.375338	-0.902306	-0.032743	-0.920056	0.390417	-0.976710	0.112332	0.182808
51	683566916													-0.236291	0.006254	0.120997	-0.213754	-0.373456	-0.902685	-0.035134	-0.920505	0.389148	-0.976255	0.114897	0.183641
52	683583583													-0.139325	0.180038	0.219293	-0.215393	-0.371108	-0.903264	-0.037669	-0.921129	0.387430	-0.975801	0.117474	0.184425
53	683600250													-0.105706	0.192221	0.111372	-0.217143	-0.369268	-0.903598	-0.040092	-0.921530	0.386231	-0.975316	0.120094	0.185299
54	683616917													-0.201150	0.068424	0.073532	-0.219015	-0.367538	-0.903852	-0.042565	-0.921861	0.385175	-0.974793	0.122832	0.186257
55	683633584													-0.296293	0.001023	0.063036	-0.221026	-0.365525	-0.904179	-0.045072	-0.922289	0.383864	-0.974226	0.125597	0.187375
56	683650251													-0.204900	0.118929	0.114092	-0.223036	-0.363238	-0.904606	-0.047551	-0.922823	0.382277	-0.973650	0.128276	0.188551
57	683666918													-0.295147	0.032079	0.143291	-0.225331	-0.361158	-0.904870	-0.049822	-0.923269	0.380909	-0.973007	0.130913	0.190048
58	683683585													-0.389728	0.051372	0.179964	-0.227534	-0.359097	-0.905140	-0.051991	-0.923715	0.379536	-0.972381	0.133417	0.191506
59	683700252													-0.377242	-0.021277	0.044265	-0.229869	-0.356806	-0.905455	-0.053954	-0.924266	0.377916	-0.971725	0.135724	0.193209
60	683716919													-0.391833	-0.053537	0.066751	-0.232697	-0.354669	-0.905573	-0.055560	-0.924765	0.376462	-0.970961	0.137915	0.195485
61	683733586													-0.486986	0.031757	0.189532	-0.235978	-0.353024	-0.905366	-0.056751	-0.925082	0.375503	-0.970100	0.139991	0.198264
62	683750253													-0.600449	0.061233	0.143395	-0.239771	-0.351822	-0.904838	-0.057420	-0.925255	0.374976	-0.969130	0.141864	0.201647
63	683766920													-0.640152	0.083531	0.121449	-0.244187	-0.351394	-0.903823	-0.057409	-0.925164	0.375201	-0.968027	0.143507	0.205740
64	683783587													-0.956580	0.023717	0.174265	-0.249222	-0.351158	-0.902539	-0.056705	-0.925055	0.375577	-0.966785	0.144780	0.210632
65	683800254													-1.045275	-0.084315	0.018360	-0.254687	-0.349948	-0.901483	-0.055701	-0.925368	0.374956	-0.965418	0.145710	0.216186
66	683816921													-0.984504	0.052522	0.103828	-0.260609	-0.347820	-0.900614	-0.054221	-0.926103	0.373354	-0.963921	0.146131	0.222491
67	683833588													-0.889036	0.255003	0.192440	-0.266895	-0.345609	-0.899623	-0.052048	-0.926953	0.371549	-0.962319	0.145988	0.229411
68	683850255													-0.870120	0.047209	0.187104	-0.273705	-0.342772	-0.898662	-0.049511	-0.928081	0.369072	-0.960538	0.145510	0.237050
69	683866922													-0.789217	-0.006974	0.201062	-0.280993	-0.339599	-0.897617	-0.046614	-0.929367	0.366203	-0.958577	0.144742	0.245315
70	683883589													-0.863113	0.230137	0.364028	-0.289031	-0.337364	-0.895906	-0.042952	-0.930335	0.364185	-0.956356	0.143741	0.254405
71	683900256													-0.875491	0.495261	0.799809	-0.297343	-0.333650	-0.894575	-0.039567	-0.931842	0.360701	-0.953951	0.142647	0.263875
72	683916923													-0.179684	0.689871	1.038431	-0.305229	-0.332020	-0.892523	-0.036066	-0.932547	0.359243	-0.951596	0.141841	0.272666
73	683933590													-0.014109	-0.094001	0.981401	-0.313576	-0.332130	-0.889584	-0.032298	-0.932562	0.359561	-0.949014	0.141481	0.281702
74	683950257													-0.202338	-0.419714	0.883658	-0.322055	-0.331955	-0.886615	-0.029251	-0.932576	0.359788	-0.946269	0.141806	0.290631
75	683966924													-0.191182	-0.168927	0.590212	-0.329686	-0.330201	-0.884463	-0.027409	-0.933098	0.358575	-0.943693	0.142459	0.298579
76	683983591													-0.013983	0.370478	0.297315	-0.336460	-0.328369	-0.882592	-0.025807	-0.933668	0.357210	-0.941344	0.142964	0.305668
77	684000258													-0.152704	0.852497	0.164222	-0.342665	-0.327388	-0.880567	-0.023670	-0.934008	0.356468	-0.939159	0.142992	0.312303
78	684016925													-0.740890	1.208699	0.163768	-0.348284	-0.328749	-0.877851	-0.020327	-0.933616	0.357698	-0.937169	0.142424	0.318481
79	684033592													-0.856495	1.241702	0.373629	-0.353294	-0.330621	-0.875142	-0.015955	-0.933202	0.358997	-0.935376	0.140794	0.324420
80	684050259													-1.331678	1.332833	0.208426	-0.357866	-0.333721	-0.872102	-0.010487	-0.932460	0.361121	-0.933714	0.138379	0.330196
81	684066926													-0.806901	1.601847	-0.231992	-0.361524	-0.336777	-0.869415	-0.004183	-0.931890	0.362717	-0.932353	0.134768	0.335492
82	684083593													-0.325861	1.668073	-0.531971	-0.364438	-0.339625	-0.867087	0.003558	-0.931624	0.363407	-0.931221	0.129354	0.340728
83	684100260													-0.200871	1.879146	-0.263364	-0.367162	-0.344253	-0.864108	0.013044	-0.930805	0.365283	-0.930066	0.122847	0.346246
84	684116927													-0.414697	1.245134	0.181892	-0.368854	-0.349822	-0.861145	0.023599	-0.929699	0.367562	-0.929188	0.115255	0.351179
85	684133594													-1.081846	0.412536	0.292817	-0.368608	-0.356786	-0.858389	0.033691	-0.927932	0.371224	-0.928974	0.107916	0.354063
86	684150261													-1.296638	0.556712	-0.022826	-0.366063	-0.365740	-0.855706	0.041715	-0.925055	0.377535	-0.929655	0.102506	0.353885
87	684166928													-0.938493	1.190339	-0.292671	-0.361449	-0.376934	-0.852804	0.049120	-0.921069	0.386288	-0.931097	0.097734	0.351435
88	684183595													-1.021149	1.597994	-0.441601	-0.354307	-0.392231	-0.848895	0.057571	-0.915210	0.398843	-0.933355	0.092441	0.346846
89	684200262													-1.380292	1.416126	-0.506362	-0.343896	-0.410849	-0.844357	0.066169	-0.907569	0.414657	-0.936674	0.086729	0.339295
90	684216929													-1.598942	0.945295	-0.524248	-0.330006	-0.429869	-0.840422	0.073670	-0.899310	0.431062	-0.941100	0.080339	0.328446
91	684233596													-1.888935	0.258101	-0.588315	-0.313292	-0.447710	-0.837499	0.079099	-0.891134	0.446793	-0.946357	0.073732	0.314599
92	684250263													-2.052982	-0.198895	-0.514418	-0.294403	-0.461371	-0.836937	0.080744	-0.884626	0.459257	-0.952264	0.067629	0.297689
93	684266930													-1.995359	-0.288604	-0.343378	-0.273382	-0.469266	-0.839673	0.078482	-0.880898	0.466753	-0.958698	0.061703	0.277651
94	684283597													-1.892611	-0.463606	-0.127282	-0.250318	-0.472020	-0.845303	0.073265	-0.879831	0.469605	-0.965388	0.055620	0.254820
95	684300264													-1.450297	-0.456336	0.097942	-0.225263	-0.468739	-0.854131	0.065097	-0.881945	0.466835	-0.972121	0.049559	0.229184
96	684316931													-0.722515	-0.070516	0.156232	-0.198396	-0.461029	-0.864923	0.054960	-0.886309	0.459822	-0.978580	0.043691	0.201178
97	684333598													-0.060418	0.138437	0.561717	-0.170733	-0.452556	-0.875239	0.044585	-0.890920	0.451967	-0.984308	0.038143	0.172286
98	684350265													0.355404	0.202797	0.797897	-0.142201	-0.445237	-0.884049	0.034442	-0.894810	0.445117	-0.989238	0.032847	0.142578
99	684366932													0.835623	-0.117858	0.728084	-0.113339	-0.438873	-0.891372	0.024547	-0.898116	0.439072	-0.993253	0.027884	0.112565
100	684383599													1.385700	-0.623648	0.486174	-0.085109	-0.432435	-0.897640	0.015027	-0.901363	0.432803	-0.996258	0.023347	0.083213
101	684400266													1.908966	-0.724506	0.340014	-0.058572	-0.427567	-0.902084	0.006065	-0.903771	0.427973	-0.998265	0.019596	0.055529
102	684416933													3.006345	-0.915505	-0.375749	-0.034975	-0.424170	-0.904907	-0.002611	-0.905419	0.424511	-0.999385	0.017210	0.030559
103	684433600													3.773126	-0.635149	-1.369387	-0.015884	-0.424696	-0.905197	-0.011056	-0.905181	0.424882	-0.999813	0.016757	0.009682
104	684450267													4.182225	-0.585730	-1.669695	-0.003029	-0.432907	-0.901434	-0.018020	-0.901268	0.432888	-0.999833	0.017555	-0.005071
105	684466934													4.093585	-1.123578	-1.611046	0.004063	-0.449270	-0.893387	-0.022337	-0.893212	0.449081	-0.999742	0.018131	-0.013665
106	684483601													3.689376	-1.830165	-1.490486	0.006555	-0.468844	-0.883257	-0.024031	-0.883095	0.468579	-0.999690	0.018154	-0.017056
107	684500268													3.837552	-1.868825	-1.404566	0.004801	-0.486364	-0.873743	-0.023400	-0.873568	0.486139	-0.999715	0.018111	-0.015575
108	684516935													1.806812	-2.702756	-0.460312	-0.002465	-0.510505	-0.859871	-0.020105	-0.859675	0.510446	-0.999795	0.018546	-0.008144
109	684533602													-3.179731	-3.906828	2.442694	-0.011233	-0.545131	-0.838276	-0.017723	-0.838088	0.545246	-0.999780	0.020982	-0.000247
110	684550269													-4.598790	-3.282729	3.213260	-0.012997	-0.563719	-0.825865	-0.017774	-0.825674	0.563868	-0.999758	0.022008	0.000712
111	684566936													-1.813240	-0.127858	1.510542	-0.011569	-0.557862	-0.829853	-0.016417	-0.829691	0.557982	-0.999798	0.020079	0.000440
112	684583603													2.094455	3.172093	-0.554834	-0.014124	-0.546900	-0.837079	-0.011591	-0.837017	0.547055	-0.999833	0.017429	0.005483
113	684600270													2.271333	1.986876	-0.779191	-0.023293	-0.549946	-0.834876	-0.003187	-0.835057	0.550154	-0.999724	0.015476	0.017698
114	684616937													-0.732007	-0.838367	0.945212	-0.032752	-0.559732	-0.828026	0.004547	-0.828546	0.559903	-0.999453	0.014573	0.029681
115	684633604													-1.553424	-1.320805	0.536144	-0.038821	-0.556697	-0.829808	0.009532	-0.830603	0.556784	-0.999201	0.013705	0.037551
116	684650271													-0.064133	-0.665379	-0.048093	-0.045421	-0.543385	-0.838254	0.014515	-0.839390	0.543335	-0.998862	0.012512	0.046013
117	684666938													0.851962	0.209145	-0.159574	-0.050898	-0.530721	-0.846017	0.020206	-0.847489	0.530429	-0.998499	0.009904	0.053859
118	684683605													1.013160	0.677052	-0.356258	-0.056367	-0.524036	-0.849829	0.026355	-0.851666	0.523422	-0.998062	0.007106	0.061817
119	684700272													0.841824	0.471041	-0.011836	-0.063106	-0.524536	-0.849046	0.032845	-0.851373	0.523532	-0.997466	0.005151	0.070956
120	684716939													0.342390	0.241406	0.068989	-0.069695	-0.528502	-0.846066	0.039511	-0.848926	0.527033	-0.996786	0.003302	0.080048
121	684733606													0.212858	-0.016704	0.277866	-0.075488	-0.532149	-0.843279	0.046365	-0.846650	0.530126	-0.996068	0.000920	0.088585
122	684750273													0.281050	-0.014262	0.227426	-0.080340	-0.536719	-0.839927	0.053256	-0.843759	0.534074	-0.995344	-0.001823	0.096371
123	684766940													-0.144873	-0.190476	0.256750	-0.085500	-0.541327	-0.836453	0.060201	-0.840801	0.537987	-0.994518	-0.004357	0.104477
124	684783607													-0.575412	-0.348079	0.517497	-0.090749	-0.542346	-0.835240	0.066444	-0.840129	0.538302	-0.993655	-0.006646	0.112276
125	684800274													-0.020062	-0.043253	0.328582	-0.094711	-0.540019	-0.836307	0.072086	-0.841598	0.535272	-0.992891	-0.009590	0.118637
126	684816941													0.277967	0.192397	0.126714	-0.099083	-0.538934	-0.836500	0.077976	-0.842257	0.533407	-0.992019	-0.012375	0.125477
127	684833608													-0.083967	0.345791	0.392930	-0.103287	-0.538455	-0.836300	0.083530	-0.842523	0.532145	-0.991138	-0.014893	0.131998
128	684850275													-0.036315	0.236085	0.110011	-0.106670	-0.537980	-0.836181	0.088945	-0.842771	0.530873	-0.990308	-0.017746	0.137749
129	684866942													0.378766	0.306175	-0.143147	-0.109669	-0.538256	-0.835615	0.094451	-0.842525	0.530311	-0.989470	-0.020766	0.143238
130	684883609													0.211656	0.173879	-0.189556	-0.112809	-0.539975	-0.834087	0.100183	-0.841349	0.531127	-0.988553	-0.023645	0.149008
131	684900276													0.180603	0.109090	-0.009466	-0.115310	-0.541458	-0.832783	0.105591	-0.840306	0.531729	-0.987701	-0.026621	0.154069
132	684916943													0.507684	0.229918	-0.056844	-0.117203	-0.543155	-0.831412	0.110760	-0.839108	0.532569	-0.986912	-0.029668	0.158506
133	684933610													0.716039	0.195099	0.055094	-0.118692	-0.545656	-0.829561	0.115627	-0.837378	0.534255	-0.986176	-0.032508	0.162482
134	684950277													0.778338	0.176980	0.124316	-0.119513	-0.549251	-0.827067	0.119925	-0.834925	0.537140	-0.985563	-0.034991	0.165653
135	684966944													0.832227	0.183188	0.118290	-0.119476	-0.553652	-0.824133	0.123637	-0.831914	0.540956	-0.985109	-0.037262	0.167846
136	684983611													0.666494	0.270520	-0.096966	-0.118578	-0.558557	-0.820947	0.126738	-0.828531	0.545411	-0.984823	-0.039371	0.169036
137	685000278													0.219601	0.092776	-0.242240	-0.117373	-0.563221	-0.817928	0.129481	-0.825269	0.549695	-0.984611	-0.041387	0.169790
138	685016945													-0.113756	-0.129787	0.037306	-0.116133	-0.566809	-0.815623	0.132019	-0.822702	0.552931	-0.984421	-0.043465	0.170372
139	685033612													-0.194121	-0.378718	0.148486	-0.114826	-0.569395	-0.814005	0.134725	-0.820780	0.555129	-0.984207	-0.045924	0.170959
140	685050279													-0.195735	-0.529591	0.105623	-0.113578	-0.571102	-0.812984	0.137633	-0.819433	0.556405	-0.983950	-0.048698	0.171672
141	685066946													-0.260954	-0.413663	0.160668	-0.112482	-0.572955	-0.811831	0.140995	-0.817953	0.557740	-0.983600	-0.051728	0.172788
142	685083613													-0.213370	-0.241474	0.085321	-0.111592	-0.574648	-0.810757	0.144571	-0.816561	0.558863	-0.983182	-0.054847	0.174199
143	685100280													-0.072458	-0.259802	-0.085519	-0.111125	-0.575146	-0.810468	0.148405	-0.815978	0.558708	-0.982663	-0.058191	0.176030
144	685116947													-0.194529	-0.247008	0.156382	-0.111817	-0.576411	-0.809474	0.152721	-0.814873	0.559159	-0.981923	-0.061100	0.179146
145	685133614													-0.166104	-0.218457	0.491398	-0.112658	-0.576113	-0.809569	0.156589	-0.814869	0.558094	-0.981218	-0.063896	0.182015
146	685150281													-0.159771	0.044775	0.043490	-0.113014	-0.574628	-0.810574	0.160261	-0.815661	0.555889	-0.980584	-0.067080	0.184272
147	685166948													-0.151729	0.296703	0.108145	-0.113470	-0.572508	-0.812009	0.163626	-0.816896	0.553089	-0.979975	-0.070107	0.186370
148	685183615													0.491296	0.578281	0.218185	-0.113116	-0.570928	-0.813170	0.166781	-0.817721	0.550923	-0.979484	-0.073303	0.187717
149	685200282													0.284902	0.430132	0.214915	-0.112360	-0.570995	-0.813228	0.170174	-0.817377	0.550396	-0.978987	-0.076547	0.189009
150	685216949													0.014234	0.145243	0.086760	-0.111471	-0.570691	-0.813564	0.173001	-0.817309	0.549614	-0.978593	-0.079481	0.189837
151	685233616													-0.039471	0.256044	0.154151	-0.110596	-0.570277	-0.813974	0.175582	-0.817327	0.548769	-0.978233	-0.082227	0.190523
152	685250283													0.105313	0.566183	0.154787	-0.109660	-0.569999	-0.814295	0.177948	-0.817258	0.548109	-0.977911	-0.084797	0.191051
153	685266950													-0.041008	0.456632	0.086967	-0.108756	-0.570239	-0.814248	0.180222	-0.816843	0.547985	-0.977595	-0.087149	0.191607
154	685283617													-0.060330	0.413160	0.244918	-0.107630	-0.570230	-0.814404	0.182143	-0.816607	0.547701	-0.977364	-0.089389	0.191755
155	685300284													-0.183282	0.353542	0.294075	-0.106323	-0.570318	-0.814514	0.183731	-0.816320	0.547599	-0.977209	-0.091428	0.191579
156	685316951													-0.086864	0.373173	0.223830	-0.104689	-0.570014	-0.814938	0.184705	-0.816328	0.547259	-0.977202	-0.093231	0.190745
157	685333618													-0.088962	0.272549	0.151817	-0.103076	-0.569846	-0.815261	0.185460	-0.816264	0.547099	-0.977231	-0.094805	0.189821
158	685350285													-0.404835	0.279224	0.214984	-0.101701	-0.569978	-0.815341	0.186035	-0.816029	0.547254	-0.977266	-0.096025	0.189027
159	685366952													-0.608069	0.182817	-0.200383	-0.100760	-0.569582	-0.815735	0.186468	-0.816190	0.546867	-0.977281	-0.097006	0.188448
160	685383619													-0.899307	-0.027039	-0.218030	-0.100787	-0.569092	-0.816073	0.187293	-0.816438	0.546215	-0.977120	-0.097793	0.188874
161	685400286													-1.224149	-0.137497	-0.137787	-0.101333	-0.567623	-0.817028	0.188556	-0.817328	0.544446	-0.976821	-0.098885	0.189851
162	685416953													-1.423379	-0.048968	-0.465520	-0.103326	-0.564664	-0.818827	0.190487	-0.819230	0.540905	-0.976237	-0.100086	0.192208
163	685433620													-1.469405	-0.060756	-0.246417	-0.106717	-0.561620	-0.820484	0.193772	-0.821122	0.536854	-0.975225	-0.101695	0.196454
164	685450287													-1.330539	0.035220	-0.151427	-0.110846	-0.558443	-0.822104	0.197965	-0.823031	0.532381	-0.973922	-0.103736	0.201782
165	685466954													-0.707179	0.429992	-0.230915	-0.115583	-0.556952	-0.822463	0.203223	-0.823757	0.529268	-0.972286	-0.105969	0.208398
166	685483621													-0.606137	0.274021	-0.032525	-0.121057	-0.556741	-0.821818	0.209362	-0.823603	0.527111	-0.970316	-0.108247	0.216264
167	685500288													-0.543865	0.279561	0.045723	-0.126852	-0.556819	-0.820891	0.215799	-0.823246	0.525069	-0.968163	-0.110542	0.224591
168	685516955													-0.563798	0.326309	-0.020537	-0.133275	-0.555920	-0.820482	0.222043	-0.823571	0.521945	-0.965885	-0.112621	0.233200
169	685533622													-0.391269	0.479615	0.025278	-0.139774	-0.554442	-0.820401	0.228209	-0.824267	0.518174	-0.963527	-0.114796	0.241740
170	685550289													0.137209	0.671107	0.273421	-0.146226	-0.552967	-0.820272	0.234218	-0.824961	0.514375	-0.961124	-0.116907	0.250145
171	685566956													0.043571	-0.066048	0.519844	-0.152606	-0.551543	-0.820068	0.240068	-0.825622	0.510604	-0.958686	-0.118951	0.258402
172	685583623													-0.109858	-0.233370	0.286037	-0.159122	-0.548859	-0.820630	0.244973	-0.827175	0.505736	-0.956383	-0.120559	0.266078
173	685600290													-0.129286	0.088577	0.007074	-0.166081	-0.544901	-0.821888	0.249281	-0.829592	0.499635	-0.954084	-0.121902	0.273613
174	685616957													-0.131286	0.185178	-0.006763	-0.173156	-0.540868	-0.823091	0.253819	-0.831992	0.493321	-0.951627	-0.123494	0.281347
175	685633624													-0.302795	-0.244117	-0.007928	-0.180751	-0.536915	-0.824045	0.258656	-0.834303	0.486864	-0.948908	-0.125143	0.289677
176	685650291													-0.530351	-0.436686	0.076054	-0.189052	-0.532390	-0.825118	0.263769	-0.836922	0.479571	-0.945878	-0.126976	0.298650
177	685666958													-0.552663	-0.098210	0.008836	-0.198042	-0.527899	-0.825895	0.269162	-0.839482	0.472041	-0.942513	-0.128816	0.308343
178	685683625													-0.640690	-0.055394	0.009254	-0.207798	-0.523751	-0.826138	0.275298	-0.841749	0.464403	-0.938632	-0.130932	0.319102
179	685700292													-0.624352	-0.149446	0.315283	-0.218359	-0.519616	-0.826026	0.281843	-0.843961	0.456393	-0.934282	-0.133152	0.330737
180	685716959													-0.778936	-0.351137	0.485454	-0.229860	-0.515526	-0.825468	0.288665	-0.846125	0.448045	-0.929428	-0.135296	0.343305
181	685733626													-0.904184	-0.327000	0.746144	-0.242406	-0.511106	-0.824627	0.295241	-0.848527	0.439130	-0.924160	-0.137016	0.356588
182	685750293													-1.149253	-0.271998	0.548326	-0.256143	-0.506338	-0.823415	0.301665	-0.851162	0.429560	-0.918362	-0.138367	0.370764
183	685766960													-1.375778	-0.133036	0.241811	-0.271045	-0.501108	-0.821843	0.308036	-0.854060	0.419161	-0.911948	-0.139545	0.385848
184	685783627													-1.856095	0.008998	0.089094	-0.287685	-0.495122	-0.819812	0.314609	-0.857352	0.407393	-0.904577	-0.140720	0.402417
185	685800294													-2.344617	0.218818	0.419105	-0.306253	-0.487498	-0.817652	0.321173	-0.861475	0.393330	-0.896134	-0.142149	0.420401
186	685816961													-2.811002	0.089500	0.813339	-0.326495	-0.478363	-0.815211	0.327972	-0.866226	0.376944	-0.886473	-0.144296	0.439709
187	685833628													-3.054086	0.367943	1.360293	-0.348360	-0.468600	-0.811825	0.334594	-0.871183	0.359285	-0.875610	-0.146471	0.460276
188	685850295													-3.364105	-0.656814	1.070130	-0.371520	-0.459323	-0.806843	0.341457	-0.875735	0.341314	-0.863354	-0.148697	0.482192
189	685866962													-3.419347	-1.041575	1.311756	-0.395900	-0.450830	-0.800010	0.349168	-0.879660	0.322923	-0.849320	-0.151493	0.505673
190	685883629													-3.852961	-2.077288	1.449464	-0.421481	-0.444959	-0.790168	0.358687	-0.882087	0.305395	-0.832885	-0.154705	0.531384
191	685900296													-4.593364	-2.807539	1.694281	-0.447629	-0.441536	-0.777608	0.369907	-0.883134	0.288519	-0.814123	-0.158493	0.558644
192	685916963													-5.427637	-3.891616	1.435229	-0.474166	-0.439976	-0.762619	0.382528	-0.883108	0.271649	-0.792993	-0.162917	0.587043
193	685933630													-5.988609	-4.691484	0.648667	-0.500790	-0.437870	-0.746645	0.395070	-0.883143	0.252938	-0.770149	-0.168308	0.615259
194	685950297													-6.195731	-3.267793	0.353665	-0.526362	-0.435904	-0.730021	0.407886	-0.882794	0.233031	-0.746038	-0.175107	0.642468
195	685966964													-5.651282	-0.721855	0.915571	-0.550164	-0.437021	-0.711570	0.422625	-0.880652	0.214105	-0.720214	-0.182935	0.669199
196	685983631													-4.409810	2.177912	2.372865	-0.571997	-0.441556	-0.691266	0.439408	-0.876571	0.196328	-0.692633	-0.191448	0.695419
197	686000298													-4.831471	2.454448	3.191785	-0.589582	-0.455574	-0.666967	0.462562	-0.867375	0.183571	-0.662140	-0.200283	0.722120
198	686016965													-4.842760	1.554940	3.048757	-0.604380	-0.470659	-0.642810	0.486434	-0.856994	0.170130	-0.630958	-0.209862	0.746894
199	686033632													-4.362741	0.859826	1.567750	-0.617163	-0.483789	-0.620531	0.508504	-0.847057	0.154654	-0.600445	-0.220095	0.768781
200	686050299													-4.484020	0.324892	0.320983	-0.627461	-0.497284	-0.599167	0.529433	-0.836719	0.140008	-0.570958	-0.229369	0.788287
201	686066966													-4.183243	-0.862894	-0.638073	-0.635633	-0.506856	-0.582296	0.544991	-0.828837	0.126546	-0.546769	-0.236909	0.803068
202	686083633													-4.024407	-1.984457	-2.785655	-0.645004	-0.506876	-0.571880	0.550601	-0.827198	0.112170	-0.529914	-0.242528	0.812632
203	686100300													-3.361750	-1.273024	-4.377989	-0.653134	-0.502597	-0.566403	0.549648	-0.829154	0.101936	-0.520868	-0.244744	0.817800
204	686116967													-2.615289	0.299685	-3.994102	-0.660903	-0.491426	-0.567193	0.540356	-0.836083	0.094765	-0.520791	-0.243856	0.818115
205	686133634													-3.362435	0.329706	-3.703920	-0.662316	-0.482732	-0.572981	0.530926	-0.842000	0.095675	-0.528635	-0.240843	0.813965
206	686150301													-3.514457	0.180522	-3.858306	-0.656791	-0.475757	-0.585048	0.521080	-0.847157	0.103923	-0.545070	-0.236602	0.804313
207	686166968													-2.097800	0.453094	-4.094165	-0.647640	-0.463742	-0.604571	0.504939	-0.855426	0.115252	-0.570612	-0.230630	0.788170
208	686183635													-0.479102	1.016852	-3.821866	-0.633980	-0.452602	-0.627073	0.485235	-0.864184	0.133162	-0.602176	-0.219856	0.767494
209	686200302													-0.294494	1.255462	-3.285809	-0.612354	-0.451149	-0.649220	0.467843	-0.868757	0.162431	-0.637295	-0.204268	0.743054
210	686216969													-1.080199	0.587789	-2.884229	-0.581667	-0.457762	-0.672397	0.451752	-0.869215	0.200960	-0.676449	-0.186865	0.712389
211	686233636													-1.300716	0.059470	-2.526143	-0.542746	-0.466477	-0.698445	0.431734	-0.868259	0.244402	-0.720439	-0.168894	0.672638
212	686250303													-0.806856	-0.066415	-2.090866	-0.497220	-0.475889	-0.725467	0.405327	-0.866708	0.290737	-0.767126	-0.149491	0.623835
213	686266970													-0.692445	-0.444726	-1.277559	-0.448620	-0.484130	-0.751238	0.371469	-0.865532	0.335954	-0.812866	-0.128346	0.568134
214	686283637													-0.657467	-1.164263	-0.168935	-0.398435	-0.490658	-0.774922	0.331327	-0.864825	0.377227	-0.855262	-0.106452	0.507145
215	686300304													-1.009091	-1.717867	0.351202	-0.349389	-0.490373	-0.798412	0.283258	-0.867522	0.408864	-0.893136	-0.083305	0.442004
216	686316971													-1.196891	-2.667371	1.846139	-0.301915	-0.474107	-0.827085	0.225455	-0.878469	0.421263	-0.926292	-0.059284	0.372113
217	686333638													1.024161	-1.712207	4.092320	-0.248499	-0.448413	-0.858588	0.164142	-0.893067	0.418913	-0.954623	-0.036831	0.295530
218	686350305													2.735135	0.346086	4.419487	-0.189131	-0.422873	-0.886232	0.103480	-0.906079	0.410259	-0.976484	-0.014115	0.215127
219	686366972													4.054487	1.242760	5.015028	-0.126491	-0.398364	-0.908464	0.044008	-0.917172	0.396055	-0.990991	0.010117	0.133545
220	686383639													6.020453	2.677741	4.808905	-0.061483	-0.378596	-0.923518	-0.012816	-0.924893	0.380013	-0.998026	0.035200	0.052013
221	686400306													7.508138	3.689452	4.168024	0.001917	-0.371349	-0.928491	-0.065998	-0.926516	0.370423	-0.997818	0.060568	-0.026285
222	686416973													8.453772	4.446432	4.424258	0.059660	-0.377454	-0.924105	-0.114060	-0.922268	0.369340	-0.991681	0.083369	-0.098075
223	686433640													8.214736	3.842278	0.740920	0.109746	-0.395737	-0.911783	-0.161366	-0.912248	0.376516	-0.980774	0.105810	-0.163974
224	686450307													7.932073	2.930366	-1.641622	0.148392	-0.423803	-0.893516	-0.206392	-0.896895	0.391129	-0.967152	0.126374	-0.220562
225	686466974													7.844659	1.877400	-3.408705	0.175064	-0.450430	-0.875480	-0.242970	-0.881475	0.404929	-0.954106	0.141827	-0.263755
226	686483641													7.249096	1.070560	-5.309140	0.191273	-0.467924	-0.862822	-0.266176	-0.870840	0.413265	-0.944757	0.150616	-0.291118
227	686500308													6.925410	1.592776	-6.770594	0.196472	-0.476952	-0.856688	-0.274049	-0.865609	0.419069	-0.941433	0.152439	-0.300776
228	686516975													7.496706	2.342812	-7.416925	0.189936	-0.480688	-0.856074	-0.268348	-0.864162	0.425691	-0.944412	0.148872	-0.293128
229	686533642													7.878274	1.961214	-6.098431	0.172637	-0.481577	-0.859232	-0.252155	-0.864869	0.434073	-0.952163	0.141723	-0.270741
230	686550309													6.097179	0.833183	-2.851430	0.147160	-0.484166	-0.862512	-0.229382	-0.864938	0.446392	-0.962147	0.132154	-0.238343
231	686566976													1.247687	-0.875804	1.855598	0.118901	-0.492283	-0.862276	-0.204979	-0.861900	0.463803	-0.971517	0.121601	-0.203388
232	686583643													-10.689795	-4.949978	10.687334	0.095659	-0.522290	-0.847386	-0.188879	-0.845348	0.499712	-0.977330	0.112251	-0.179515
233	686600310													-5.005896	-5.645899	10.419424	0.111344	-0.498413	-0.859760	-0.177076	-0.861245	0.476342	-0.977879	0.099205	-0.184151
234	686616977													6.043427	5.041936	-3.160862	0.130924	-0.433904	-0.891396	-0.160189	-0.896579	0.412899	-0.978365	0.088734	-0.186890
235	686633644													8.323850	1.610629	-4.051856	0.111008	-0.406948	-0.906681	-0.138979	-0.909711	0.391293	-0.984054	0.082573	-0.157543
236	686650311													2.961384	3.065186	3.018775	0.072639	-0.443132	-0.893509	-0.121814	-0.893110	0.433031	-0.989891	0.077387	-0.118854
237	686666978													4.816135	6.759120	1.532915	0.052591	-0.472413	-0.879807	-0.100036	-0.879087	0.466046	-0.993593	0.063502	-0.093490
238	686683645													6.795289	1.941562	-0.412815	0.033485	-0.490724	-0.870672	-0.073967	-0.869988	0.487494	-0.996698	0.048077	-0.065429
239	686700312													5.697205	1.091406	-0.003134	0.010351	-0.522711	-0.852447	-0.052138	-0.851615	0.521568	-0.998586	0.039046	-0.036068
240	686716979													1.551374	-1.815457	0.873626	0.001554	-0.545162	-0.838329	-0.034666	-0.837856	0.544790	-0.999398	0.028215	-0.020201
241	686733646													0.381968	-2.995045	-0.276206	-0.004946	-0.545583	-0.838042	-0.021384	-0.837803	0.545554	-0.999759	0.020620	-0.007523
242	686750313													0.752372	-0.951976	0.158913	-0.012182	-0.526399	-0.850150	-0.008995	-0.850121	0.526510	-0.999885	0.014060	0.005621
243	686766980													1.867508	-0.186962	0.858143	-0.018203	-0.502436	-0.864423	0.003741	-0.864594	0.502457	-0.999827	0.005912	0.017618
244	686783647													1.843592	1.365569	0.648068	-0.022055	-0.483927	-0.874830	0.015893	-0.875102	0.483677	-0.999630	-0.003236	0.026991
245	686800314													2.311393	3.316075	0.037036	-0.025367	-0.475655	-0.879266	0.026406	-0.879561	0.475053	-0.999329	-0.011167	0.034872
246	686816981													2.184949	3.618409	-0.510982	-0.029836	-0.480974	-0.876227	0.036111	-0.876564	0.479930	-0.998902	-0.017322	0.043522
247	686833648													1.362147	2.188127	-0.412592	-0.035092	-0.496600	-0.867270	0.045806	-0.867691	0.494989	-0.998334	-0.022356	0.053196
248	686850315													0.121404	0.097343	-0.091790	-0.040060	-0.513268	-0.857293	0.055065	-0.857812	0.511005	-0.997679	-0.026735	0.062627
249	686866982													-0.779927	-1.222442	0.161860	-0.044404	-0.523964	-0.850582	0.064052	-0.851163	0.520978	-0.996958	-0.031348	0.071356
250	686883649													-0.710625	-1.021489	0.119142	-0.048079	-0.525508	-0.849429	0.072050	-0.850022	0.521796	-0.996242	-0.036114	0.078731
251	686900316													0.120440	0.012201	0.165592	-0.051774	-0.521016	-0.851975	0.079311	-0.852570	0.516560	-0.995505	-0.040826	0.085463
252	686916983													0.665021	0.625313	0.320165	-0.055348	-0.515375	-0.855176	0.086567	-0.855740	0.510112	-0.994707	-0.045796	0.091978
253	686933650													0.960788	0.990622	0.351939	-0.059180	-0.511146	-0.857454	0.093396	-0.858027	0.505042	-0.993869	-0.050194	0.098517
254	686950317													1.023917	0.973025	0.169166	-0.063331	-0.510096	-0.857783	0.099598	-0.858448	0.503138	-0.993010	-0.053570	0.105171
255	686966984													0.743971	0.849205	0.227070	-0.068005	-0.511471	-0.856606	0.105292	-0.857478	0.503632	-0.992113	-0.055944	0.112166
256	686983651													0.664735	0.485474	0.223594	-0.071834	-0.513488	-0.855085	0.110334	-0.856129	0.504846	-0.991295	-0.058080	0.118154
257	687000318													0.515152	-0.164578	0.112122	-0.075194	-0.514607	-0.854123	0.115196	-0.855296	0.505172	-0.990493	-0.060406	0.123594
258	687016985													0.476329	-0.159539	0.316581	-0.078116	-0.515384	-0.853392	0.119869	-0.854653	0.505173	-0.989712	-0.062833	0.128541
259	687033652													0.063405	-0.253687	0.428652	-0.080822	-0.514087	-0.853922	0.124571	-0.855217	0.503077	-0.988914	-0.065714	0.133160
260	687050319													-0.053997	0.146425	0.068198	-0.083394	-0.512135	-0.854847	0.128811	-0.856178	0.500366	-0.988156	-0.068386	0.137369
261	687066986													-0.582754	0.132122	-0.305793	-0.086284	-0.508709	-0.856604	0.133036	-0.857993	0.496134	-0.987348	-0.071151	0.141708
262	687083653													-0.683687	0.453629	-0.527964	-0.089712	-0.503387	-0.859391	0.137554	-0.860864	0.489890	-0.986423	-0.074264	0.146473
263	687100320													-0.140390	0.811710	-0.212019	-0.093783	-0.498957	-0.861537	0.142666	-0.863156	0.484364	-0.985318	-0.077486	0.152133
264	687116987													-0.031228	0.540220	-0.032908	-0.098402	-0.496157	-0.862639	0.148472	-0.864463	0.480270	-0.984009	-0.080818	0.158730
265	687133654													-0.200845	0.366881	0.121218	-0.103315	-0.494925	-0.862772	0.154646	-0.864858	0.477603	-0.982553	-0.084081	0.165891
266	687150321													-0.517918	0.221877	0.279781	-0.108717	-0.492917	-0.863258	0.160788	-0.865689	0.474056	-0.980983	-0.087263	0.173370
267	687166988													-0.656859	0.166738	0.016363	-0.114494	-0.489645	-0.864372	0.166876	-0.867210	0.469148	-0.979308	-0.090528	0.181000
268	687183655													-0.863068	0.262093	-0.215441	-0.121249	-0.484966	-0.866087	0.173268	-0.869469	0.462603	-0.977383	-0.093975	0.189451
269	687200322													-0.902434	0.144610	-0.314671	-0.129135	-0.479192	-0.868159	0.180322	-0.872240	0.454622	-0.975094	-0.097841	0.199046
270	687216989													-0.918509	0.149638	-0.305146	-0.138337	-0.473252	-0.869997	0.188261	-0.874992	0.446034	-0.972327	-0.102084	0.210138
271	687233656													-0.936756	0.182932	-0.353590	-0.148886	-0.467553	-0.871337	0.197144	-0.877503	0.437175	-0.969003	-0.106689	0.222823
272	687250323													-1.025543	0.207898	-0.382869	-0.160960	-0.462497	-0.871888	0.207062	-0.879571	0.428346	-0.964996	-0.111588	0.237341
273	687266990													-1.214843	0.312862	-0.200161	-0.174989	-0.457046	-0.872060	0.217706	-0.881763	0.418446	-0.960199	-0.116630	0.253801
274	687283657													-1.160266	0.313620	0.003296	-0.190876	-0.451800	-0.871460	0.229073	-0.883772	0.408010	-0.954511	-0.121749	0.272186
275	687300324													-1.115898	0.064891	0.342587	-0.208468	-0.446692	-0.870061	0.241214	-0.885609	0.396879	-0.947817	-0.127134	0.292370
276	687316991													-1.220777	-0.446330	0.452109	-0.227936	-0.441176	-0.867991	0.253741	-0.887569	0.384494	-0.940032	-0.132605	0.314254
277	687333658													-1.221588	-0.417924	0.712764	-0.249519	-0.434456	-0.865441	0.266295	-0.890038	0.370027	-0.931036	-0.138134	0.337775
278	687350325													-1.283907	-0.424137	1.052774	-0.273141	-0.426682	-0.862170	0.278990	-0.892867	0.353488	-0.920629	-0.143985	0.362919
279	687366992													-1.674346	-0.762198	1.026994	-0.298713	-0.416970	-0.858433	0.291353	-0.896402	0.334030	-0.908782	-0.150328	0.389253
280	687383659													-2.516132	-0.160097	1.663248	-0.326018	-0.405692	-0.853889	0.303096	-0.900413	0.312073	-0.895458	-0.157068	0.416515
281	687400326													-2.538110	0.189394	2.661159	-0.354567	-0.394545	-0.847713	0.314253	-0.904160	0.289377	-0.880640	-0.163793	0.444572
282	687416993													-2.794461	-0.907131	2.701171	-0.383511	-0.386124	-0.838944	0.325550	-0.906616	0.268449	-0.864255	-0.170165	0.473400
283	687433660													-3.259828	-2.565124	2.451327	-0.413529	-0.378483	-0.828097	0.336488	-0.908645	0.247265	-0.846031	-0.176394	0.503106
284	687450327													-3.851304	-3.653410	2.328987	-0.444622	-0.371594	-0.815002	0.346743	-0.910350	0.225903	-0.825882	-0.182155	0.533609
285	687466994													-4.871414	-4.403614	1.921478	-0.476240	-0.366321	-0.799378	0.356957	-0.911355	0.204974	-0.803603	-0.187727	0.564784
286	687483661													-6.827196	-4.664116	1.359056	-0.507346	-0.364247	-0.780976	0.368524	-0.910932	0.185453	-0.778967	-0.193720	0.596392
287	687500328													-8.446885	-4.538924	0.017235	-0.536514	-0.366172	-0.760310	0.381677	-0.908831	0.168370	-0.752646	-0.199859	0.627360
288	687516995													-6.994048	-1.409674	-0.191875	-0.562671	-0.368432	-0.740040	0.394786	-0.906275	0.151027	-0.726323	-0.207178	0.655387
289	687533662													-3.882627	2.533820	2.140197	-0.587066	-0.371389	-0.719322	0.408835	-0.902935	0.132524	-0.698719	-0.216284	0.681919
290	687550329													-3.996959	3.053153	3.767874	-0.609672	-0.382510	-0.694252	0.429616	-0.895514	0.116123	-0.666131	-0.227465	0.710302
291	687566996													-5.998227	1.884566	3.059872	-0.630007	-0.400540	-0.665326	0.455320	-0.884539	0.101362	-0.629107	-0.239077	0.739640
292	687583663													-6.595321	-0.045400	1.815047	-0.649062	-0.410826	-0.640266	0.474669	-0.876415	0.081161	-0.594481	-0.251236	0.763854
293	687600330													-5.470947	-0.488623	0.260857	-0.664719	-0.415553	-0.620857	0.487440	-0.871015	0.061113	-0.566172	-0.262007	0.781538
294	687616997													-3.798831	-0.844248	-0.213299	-0.676577	-0.418257	-0.606057	0.494818	-0.867753	0.046466	-0.545343	-0.268450	0.794063
295	687633664													-3.027386	-1.330461	-2.564993	-0.685654	-0.419682	-0.594765	0.498344	-0.866202	0.036717	-0.530596	-0.271222	0.803061
296	687650331													-2.431757	-0.111653	-3.422796	-0.691818	-0.417761	-0.588951	0.496736	-0.867322	0.031720	-0.524062	-0.270609	0.807546
297	687666998													-2.369582	0.628047	-3.540216	-0.694040	-0.411621	-0.590658	0.490195	-0.871060	0.031037	-0.527274	-0.267997	0.806325
298	687683665													-2.921861	0.660413	-4.082704	-0.686638	-0.412197	-0.598851	0.487489	-0.872149	0.041360	-0.539336	-0.263534	0.799792
299	687700332													-2.369088	1.396280	-4.137682	-0.672022	-0.414246	-0.613830	0.483503	-0.873284	0.060000	-0.560902	-0.256467	0.787155
300	687716999													-0.789996	2.423393	-3.737711	-0.653265	-0.412762	-0.634722	0.473378	-0.876934	0.083064	-0.590895	-0.246201	0.768263
301	687733666													0.313335	2.552463	-3.627805	-0.626472	-0.422062	-0.655283	0.465978	-0.876730	0.119204	-0.624818	-0.230669	0.745919
302	687750333													-0.029873	1.807222	-3.628467	-0.590887	-0.443807	-0.673712	0.461364	-0.870948	0.169092	-0.661813	-0.210912	0.719388
303	687767000													-0.976950	0.715746	-3.735352	-0.549152	-0.466661	-0.693297	0.451094	-0.863866	0.224166	-0.703525	-0.189641	0.684901
304	687783667													-1.027075	-0.151851	-3.581720	-0.504126	-0.485036	-0.714561	0.430104	-0.858490	0.279293	-0.748911	-0.166536	0.641403
305	687800334													-0.945464	-0.865978	-2.534641	-0.456953	-0.497328	-0.737468	0.398177	-0.855750	0.330374	-0.795392	-0.142677	0.589063
306	687817001													-1.065890	-1.385217	-0.805587	-0.408195	-0.503376	-0.761570	0.358338	-0.855631	0.373482	-0.839626	-0.120446	0.529643
307	687833668													-2.014374	-1.439560	-1.029812	-0.364935	-0.492006	-0.790413	0.305724	-0.865214	0.397414	-0.879406	-0.096618	0.466165
308	687850335													-0.258217	-2.648848	2.612080	-0.321868	-0.462667	-0.826039	0.244248	-0.883512	0.399686	-0.914737	-0.073112	0.397380
309	687867002													1.692319	-0.164673	3.873099	-0.267802	-0.433487	-0.860448	0.185715	-0.899545	0.395383	-0.945406	-0.053914	0.321405
310	687883669													2.941675	0.570390	3.891188	-0.210300	-0.400735	-0.891732	0.127463	-0.915583	0.381393	-0.969292	-0.033456	0.243626
311	687900336													4.291165	1.776924	4.698713	-0.148736	-0.366775	-0.918343	0.071505	-0.930231	0.359942	-0.986288	-0.012130	0.164585
312	687917003													5.676752	3.119530	4.381199	-0.083022	-0.346622	-0.934324	0.023254	-0.937979	0.345911	-0.996276	0.006991	0.085933
313	687933670													6.424225	3.420269	3.065756	-0.017467	-0.331326	-0.943355	-0.019353	-0.943210	0.331634	-0.999660	0.024049	0.010063
314	687950337													7.763763	4.545914	1.789977	0.043225	-0.321011	-0.946089	-0.057010	-0.946223	0.318452	-0.997437	0.040171	-0.059201
315	687967004													8.641936	4.152571	0.963873	0.094181	-0.321477	-0.942222	-0.090529	-0.945273	0.313469	-0.991430	0.055775	-0.118130
316	687983671													7.694025	1.708823	-0.081996	0.135934	-0.328252	-0.934758	-0.124961	-0.941661	0.312504	-0.982805	0.074329	-0.169023
317	688000338													7.415506	0.998960	-1.537277	0.172203	-0.334570	-0.926504	-0.157605	-0.937795	0.309355	-0.972372	0.092750	-0.214221
318	688017005													8.016563	2.497156	-3.242042	0.199358	-0.343384	-0.917793	-0.185435	-0.932891	0.308753	-0.962221	0.108638	-0.249655
319	688033672													8.165514	3.406384	-3.984277	0.217310	-0.356683	-0.908600	-0.204128	-0.926869	0.315034	-0.954520	0.117011	-0.274227
320	688050339													7.813930	2.833532	-5.186706	0.225155	-0.370985	-0.900930	-0.214532	-0.920856	0.325576	-0.950411	0.119973	-0.286924
321	688067006													7.883377	2.267077	-5.562140	0.221493	-0.385386	-0.895778	-0.216414	-0.915114	0.340193	-0.950845	0.118509	-0.286094
322	688083673													8.027511	1.978333	-5.006598	0.206815	-0.399502	-0.893099	-0.210144	-0.909668	0.358251	-0.955545	0.113588	-0.272086
323	688100340													7.513697	1.500328	-3.385732	0.184227	-0.412902	-0.891948	-0.196805	-0.904600	0.378110	-0.962979	0.105882	-0.247913
324	688117007													2.591842	-0.426300	0.505693	0.154747	-0.440163	-0.884483	-0.181767	-0.892669	0.412435	-0.971089	0.096947	-0.218145
325	688133674													-7.910650	-3.123567	9.754066	0.128763	-0.489178	-0.862627	-0.174915	-0.867433	0.465795	-0.976127	0.090909	-0.197258
326	688150341													-4.803980	-4.917944	9.438591	0.136824	-0.488725	-0.861642	-0.167815	-0.868686	0.466072	-0.976277	0.080827	-0.200872
327	688167008													3.950044	0.501129	-1.765128	0.148132	-0.452100	-0.879581	-0.155024	-0.889013	0.430841	-0.976742	0.072534	-0.201778
328	688183675													6.576786	-1.594137	-2.594157	0.130777	-0.435965	-0.890411	-0.136417	-0.897494	0.419398	-0.981982	0.066619	-0.176845
329	688200342													2.072210	-1.932837	2.809542	0.097515	-0.459503	-0.882807	-0.119213	-0.886041	0.448018	-0.988068	0.061554	-0.141181
330	688217009													1.593565	2.946329	2.513253	0.077936	-0.479151	-0.874265	-0.100209	-0.876257	0.471310	-0.991909	0.050877	-0.116308
331	688233676													4.429541	3.727932	-0.426031	0.062726	-0.484559	-0.872507	-0.077928	-0.873937	0.479751	-0.994984	0.037900	-0.092579
332	688250343													5.395021	3.640479	-1.968931	0.042352	-0.497977	-0.866156	-0.055265	-0.866774	0.495630	-0.997573	0.026878	-0.064231
333	688267010													2.829867	0.906202	0.272687	0.027639	-0.511843	-0.858634	-0.034714	-0.858936	0.510906	-0.999015	0.015686	-0.041508
334	688283677													0.829948	-0.189323	-0.205760	0.019479	-0.514936	-0.857007	-0.020360	-0.857196	0.514587	-0.999603	0.007425	-0.027181
335	688300344													1.131411	-0.522873	-0.662819	0.010562	-0.507513	-0.861579	-0.007536	-0.861643	0.507459	-0.999916	0.001133	-0.012925
336	688317011													1.064762	-0.233583	0.310529	0.001322	-0.492799	-0.870142	0.005858	-0.870124	0.492798	-0.999982	-0.005748	0.001737
337	688333678													1.615625	0.454343	0.673638	-0.007336	-0.478884	-0.877848	0.018406	-0.877787	0.478697	-0.999804	-0.012646	0.015254
338	688350345													2.338918	1.562251	0.425819	-0.016143	-0.474297	-0.880217	0.030672	-0.880152	0.473699	-0.999399	-0.019351	0.028756
339	688367012													2.427643	2.619213	-0.095571	-0.025347	-0.484690	-0.874319	0.042889	-0.874322	0.483448	-0.998758	-0.025245	0.042950
340	688383679													1.568309	2.222343	-0.257674	-0.034179	-0.502694	-0.863788	0.054566	-0.863943	0.500625	-0.997925	-0.030023	0.056959
341	688400346													-0.126861	0.267908	0.037744	-0.042478	-0.519863	-0.853193	0.066066	-0.853556	0.516795	-0.996911	-0.034414	0.070603
342	688417013													-0.982479	-1.416074	0.216193	-0.050136	-0.529412	-0.846882	0.077113	-0.847469	0.525214	-0.995761	-0.038973	0.083313
343	688433680													-1.053058	-1.267450	0.333905	-0.057774	-0.528632	-0.846882	0.086832	-0.847745	0.523247	-0.994546	-0.043306	0.094880
344	688450347													0.543005	0.358244	0.445772	-0.064977	-0.520233	-0.851549	0.094901	-0.852706	0.513698	-0.993364	-0.047434	0.104777
345	688467014													1.741037	1.270204	0.276813	-0.071713	-0.511190	-0.856471	0.102277	-0.857924	0.503493	-0.992168	-0.051490	0.113807
346	688483681													2.185348	1.414071	0.375784	-0.078022	-0.505796	-0.859118	0.108680	-0.860924	0.496990	-0.991010	-0.054593	0.122141
347	688500348													1.883824	0.926474	0.451874	-0.083475	-0.504538	-0.859345	0.114034	-0.861526	0.494741	-0.989964	-0.056696	0.129450
348	688517015													1.372887	0.611251	0.420380	-0.087821	-0.506086	-0.858000	0.118363	-0.860528	0.495462	-0.989079	-0.058043	0.135474
349	688533682													1.044427	0.300717	0.296990	-0.091225	-0.508084	-0.856463	0.122062	-0.859269	0.496747	-0.988321	-0.059226	0.140405
350	688550349													0.770240	0.226676	0.237801	-0.093967	-0.510527	-0.854712	0.125470	-0.857738	0.498541	-0.987637	-0.060395	0.144655
351	688567016													0.310155	-0.019424	0.265436	-0.096601	-0.512455	-0.853263	0.128610	-0.856513	0.499846	-0.986979	-0.061453	0.148647
352	688583683													0.054692	-0.037206	0.160969	-0.098969	-0.513362	-0.852446	0.131328	-0.855897	0.500193	-0.986386	-0.062446	0.152126
353	688600350													-0.208560	-0.156078	-0.112718	-0.101420	-0.512262	-0.852820	0.134204	-0.856449	0.498482	-0.985750	-0.063896	0.155609
354	688617017													-0.452469	0.002869	-0.378534	-0.104143	-0.509012	-0.854436	0.137211	-0.858246	0.494558	-0.985052	-0.065733	0.159222
355	688633684													-0.552145	0.222985	-0.404707	-0.107430	-0.504203	-0.856877	0.140365	-0.860924	0.488986	-0.984254	-0.067744	0.163262
356	688650351													-0.368886	0.846895	-0.316444	-0.111028	-0.499497	-0.859172	0.143981	-0.863480	0.483395	-0.983332	-0.070034	0.167789
357	688667018													-0.294454	1.444559	-0.047208	-0.115156	-0.497475	-0.859801	0.148299	-0.864469	0.480313	-0.982215	-0.072197	0.173324
358	688683685													-0.078246	1.415909	0.192291	-0.119328	-0.499157	-0.858256	0.153041	-0.863348	0.480841	-0.980989	-0.073970	0.179413
359	688700352													-0.479076	0.336368	-0.068691	-0.124316	-0.502860	-0.855381	0.158146	-0.861090	0.483232	-0.979559	-0.075201	0.186573
360	688717019													-0.826481	-0.504090	-0.119138	-0.130697	-0.505322	-0.852976	0.163440	-0.859566	0.484183	-0.977858	-0.076129	0.194932
361	688733686													-1.398179	-0.646199	-0.031926	-0.138801	-0.505885	-0.851361	0.169670	-0.859119	0.482832	-0.975677	-0.077433	0.205080
362	688750353													-1.810255	-0.234361	-0.440371	-0.148554	-0.504677	-0.850431	0.177027	-0.859653	0.479226	-0.972930	-0.079359	0.217046
363	688767020													-1.867141	0.420314	-0.830356	-0.160525	-0.502199	-0.849722	0.185914	-0.860861	0.473661	-0.969365	-0.081941	0.231555
364	688783687													-1.347677	0.487438	-0.469926	-0.174723	-0.499951	-0.848246	0.196906	-0.861837	0.467402	-0.964728	-0.085359	0.249026
365	688800354													-1.429696	0.223624	-0.008000	-0.191014	-0.499173	-0.845186	0.209436	-0.861939	0.461734	-0.958984	-0.088815	0.269187
366	688817021													-1.564201	0.057120	0.100177	-0.208821	-0.498393	-0.841426	0.222380	-0.862054	0.455423	-0.952334	-0.092015	0.290848
367	688833688													-1.102366	0.456558	-0.225199	-0.228119	-0.496883	-0.837299	0.235584	-0.862588	0.447706	-0.944702	-0.095124	0.313831
368	688850355													-0.704064	0.942654	-0.398641	-0.249080	-0.495605	-0.832066	0.249240	-0.863009	0.439425	-0.935862	-0.097932	0.338483
369	688867022													-0.780721	0.713050	0.202621	-0.271931	-0.493986	-0.825852	0.263512	-0.863614	0.429806	-0.925535	-0.100745	0.365015
370	688883689													-1.282361	-0.622419	0.998560	-0.296843	-0.489954	-0.819652	0.277884	-0.865515	0.416731	-0.913600	-0.104064	0.393073
371	688900356													-1.870930	-0.527456	2.183877	-0.323617	-0.483245	-0.813478	0.291685	-0.868823	0.400084	-0.900106	-0.107806	0.422121
372	688917023													-2.700254	-0.693436	3.373501	-0.352108	-0.476133	-0.805802	0.305694	-0.872225	0.381804	-0.884631	-0.111893	0.452668
373	688933690													-3.794894	-1.806818	3.302824	-0.382141	-0.469034	-0.796226	0.319268	-0.875573	0.362546	-0.867200	-0.115666	0.484340
374	688950357													-4.413915	-2.415987	3.033808	-0.414103	-0.460878	-0.784927	0.332223	-0.879376	0.341065	-0.847435	-0.119534	0.517267
375	688967024													-5.634822	-3.031900	3.551970	-0.447703	-0.453316	-0.770757	0.346197	-0.882618	0.318014	-0.824445	-0.124458	0.552088
376	688983691													-6.903558	-3.753766	3.166973	-0.481721	-0.446428	-0.754087	0.360938	-0.885208	0.293481	-0.798542	-0.130803	0.587556
377	689000358													-8.667101	-4.222389	2.091771	-0.515958	-0.439599	-0.735215	0.376433	-0.887323	0.266375	-0.769471	-0.139321	0.623301
378	689017025													-10.395379	-4.154462	0.266336	-0.548926	-0.434412	-0.714119	0.391932	-0.888369	0.239143	-0.738288	-0.148614	0.657909
379	689033692													-8.446527	-0.771371	0.103352	-0.578671	-0.428828	-0.693719	0.405197	-0.889365	0.211769	-0.707782	-0.158548	0.688409
380	689050359													-4.677575	3.782676	2.083847	-0.605748	-0.425235	-0.672491	0.418733	-0.889064	0.185005	-0.676558	-0.169528	0.716609
381	689067026													-3.025615	4.431908	4.808002	-0.633315	-0.426512	-0.645754	0.435586	-0.886155	0.158098	-0.639669	-0.181155	0.746998
382	689083693													-4.536082	2.061763	4.483682	-0.658145	-0.433039	-0.615892	0.455490	-0.880363	0.132252	-0.599478	-0.193491	0.776651
383	689100360													-5.125857	0.271539	2.048954	-0.675606	-0.444615	-0.588111	0.475445	-0.872410	0.113368	-0.563479	-0.203022	0.800796
384	689117027													-4.368569	-1.382978	-0.031705	-0.687672	-0.455062	-0.565708	0.490343	-0.865733	0.100348	-0.535417	-0.208384	0.818477
385	689133694													-3.732758	-1.548317	-2.803343	-0.697253	-0.458877	-0.550701	0.496552	-0.863263	0.090627	-0.516986	-0.210261	0.829768
386	689150361													-2.406675	0.108181	-3.857215	-0.702243	-0.460399	-0.543035	0.497443	-0.862983	0.088377	-0.509319	-0.208067	0.835046
387	689167028													-2.730879	0.558572	-4.618094	-0.700703	-0.464766	-0.541302	0.498514	-0.861709	0.094555	-0.510391	-0.203592	0.835495
388	689183695													-3.773287	0.390586	-4.722565	-0.692761	-0.469052	-0.547788	0.498968	-0.860173	0.105515	-0.520685	-0.200232	0.829936
389	689200362													-3.269299	0.507286	-4.280724	-0.680799	-0.467748	-0.563670	0.494011	-0.861392	0.118140	-0.540801	-0.198030	0.817508
390	689217029													-1.643489	1.003555	-4.140811	-0.663989	-0.465209	-0.585405	0.485487	-0.863653	0.135669	-0.568701	-0.194124	0.799309
391	689233696													-0.747510	1.076301	-4.124901	-0.639997	-0.468844	-0.608761	0.477986	-0.863239	0.162321	-0.601609	-0.187094	0.776571
392	689250363													-0.917069	0.725787	-3.967324	-0.607809	-0.477310	-0.634620	0.469932	-0.860424	0.197063	-0.640103	-0.178452	0.747277
393	689267030													-0.992656	0.401249	-4.120308	-0.567672	-0.486542	-0.664098	0.457260	-0.857143	0.237107	-0.684589	-0.169066	0.709052
394	689283697													-0.769949	-0.199226	-3.982204	-0.521406	-0.493647	-0.696023	0.437085	-0.855051	0.279006	-0.732866	-0.158745	0.661595
395	689300364													-1.141873	-1.188414	-3.312538	-0.471327	-0.494956	-0.729979	0.407248	-0.856297	0.317656	-0.782304	-0.147563	0.605165
396	689317031													-1.136890	-2.254860	-2.472785	-0.418963	-0.487515	-0.766028	0.366498	-0.862660	0.348565	-0.830752	-0.134712	0.540096
397	689333698													-0.550212	-3.062257	-1.106767	-0.364687	-0.472749	-0.802192	0.317666	-0.873006	0.370066	-0.875266	-0.119871	0.468551
398	689350365													-0.539612	-3.519360	0.213482	-0.308074	-0.451705	-0.837289	0.263891	-0.886133	0.380959	-0.914031	-0.103590	0.392195
399	689367032													-0.202374	-3.554568	1.870176	-0.249234	-0.416547	-0.874283	0.203484	-0.905143	0.373242	-0.946824	-0.084878	0.310353
400	689383699													2.861458	-2.049726	4.761697	-0.182242	-0.371371	-0.910424	0.142097	-0.926157	0.349345	-0.972932	-0.065703	0.221556
401	689400366													4.917723	0.638158	5.373491	-0.107518	-0.335721	-0.935805	0.085540	-0.940895	0.327719	-0.990516	-0.044812	0.129881
402	689417033													5.668288	0.574611	5.867235	-0.030895	-0.310272	-0.950146	0.032121	-0.950417	0.309317	-0.999006	-0.020963	0.039330
403	689433700													7.282642	1.506856	5.701548	0.045240	-0.287857	-0.956604	-0.019258	-0.957658	0.287263	-0.998790	0.005426	-0.048868
404	689450367													9.759318	2.763528	4.297505	0.115115	-0.272087	-0.955362	-0.067030	-0.961692	0.265813	-0.991088	0.033439	-0.128943
405	689467034													10.795091	3.856485	2.127832	0.173651	-0.270351	-0.946972	-0.113519	-0.960666	0.253444	-0.978243	0.063489	-0.197511
406	689483701													10.606159	4.561022	-0.226466	0.217166	-0.287852	-0.932727	-0.161554	-0.952953	0.256479	-0.962673	0.094988	-0.253452
407	689500368													9.614078	4.750151	-5.540409	0.245917	-0.318148	-0.915591	-0.207614	-0.939965	0.270855	-0.946795	0.123482	-0.297206
408	689517035													8.689640	3.337568	-8.042783	0.257175	-0.348254	-0.901432	-0.236468	-0.927128	0.290718	-0.936987	0.138394	-0.320785
409	689533702													9.269550	3.035358	-8.309644	0.254040	-0.366276	-0.895157	-0.242619	-0.920060	0.307612	-0.936269	0.139037	-0.322598
410	689550369													10.055160	4.202877	-8.814430	0.233442	-0.383702	-0.893464	-0.233923	-0.914027	0.331414	-0.943814	0.131635	-0.303129
411	689567036													9.594417	3.418495	-5.640602	0.195579	-0.408464	-0.891575	-0.215760	-0.904778	0.367183	-0.956659	0.120553	-0.265086
412	689583703													0.973508	-0.464994	2.909261	0.147904	-0.454282	-0.878494	-0.193950	-0.884339	0.424651	-0.969798	0.107577	-0.218905
413	689600370													-14.175311	-7.395182	19.070686	0.116222	-0.515114	-0.849205	-0.181979	-0.851570	0.491643	-0.976410	0.097398	-0.192711
414	689617037													-2.923235	-5.515849	8.718393	0.140431	-0.469665	-0.871604	-0.162318	-0.879338	0.447680	-0.976694	0.078609	-0.199721
415	689633704													8.242131	3.691022	-7.203152	0.152160	-0.387994	-0.909015	-0.137318	-0.919103	0.369314	-0.978770	0.068630	-0.193129
416	689650371													8.624885	1.123206	-2.965296	0.115047	-0.356766	-0.927082	-0.108535	-0.932207	0.345269	-0.987413	0.060899	-0.145970
417	689667038													5.158168	6.368994	5.692042	0.080253	-0.377514	-0.922520	-0.085276	-0.924712	0.370993	-0.993120	0.048895	-0.106404
418	689683705													6.217456	4.575285	-0.263527	0.065044	-0.386072	-0.920173	-0.058239	-0.922022	0.382731	-0.996181	0.028695	-0.082456
419	689700372													6.613846	1.867563	-1.963153	0.042823	-0.402343	-0.914487	-0.034170	-0.915381	0.401136	-0.998498	0.014070	-0.052948
420	689717039													5.255819	1.433934	-0.708173	0.025723	-0.427543	-0.903629	-0.016330	-0.903987	0.427248	-0.999536	0.003766	-0.030235
421	689733706													2.686894	-0.125098	0.408657	0.013913	-0.446217	-0.894817	-0.000535	-0.894907	0.446253	-0.999903	-0.005730	-0.012690
422	689750373													1.345917	0.114304	0.569953	0.000483	-0.451606	-0.892218	0.013258	-0.892136	0.451572	-0.999912	-0.012047	0.005556
423	689767040													1.489691	0.196362	0.855299	-0.011843	-0.446574	-0.894668	0.026109	-0.894564	0.446177	-0.999589	-0.018075	0.022254
424	689783707													1.755512	0.742631	0.722012	-0.020453	-0.438379	-0.898558	0.038228	-0.898431	0.437447	-0.999060	-0.025403	0.035134
425	689800374													1.970983	1.481179	0.569422	-0.028555	-0.430582	-0.902099	0.048681	-0.901996	0.428992	-0.998406	-0.031665	0.046717
426	689817041													1.836733	1.830441	0.384834	-0.036284	-0.429186	-0.902487	0.057266	-0.902491	0.426885	-0.997699	-0.036193	0.057323
427	689833708													1.140047	1.666629	0.127530	-0.043805	-0.431285	-0.901151	0.064754	-0.901346	0.428231	-0.996939	-0.039595	0.067411
428	689850375													0.495698	1.043897	0.208273	-0.051289	-0.434323	-0.899296	0.071439	-0.899770	0.430477	-0.996125	-0.042166	0.077176
429	689867042													0.150278	0.489617	0.169056	-0.058403	-0.435570	-0.898258	0.077531	-0.899055	0.430916	-0.995278	-0.044476	0.086278
430	689883709													0.228062	0.368068	0.138039	-0.065468	-0.434179	-0.898445	0.082424	-0.899652	0.428757	-0.994445	-0.045984	0.094685
431	689900376													0.474827	0.572979	0.210931	-0.072423	-0.432933	-0.898512	0.086465	-0.900211	0.426783	-0.993619	-0.046781	0.102630
432	689917043													0.003885	0.329936	0.147955	-0.078770	-0.432028	-0.898414	0.090911	-0.900572	0.425095	-0.992739	-0.048191	0.110214
433	689933710													0.407064	0.596177	-0.090440	-0.084274	-0.431932	-0.897960	0.095311	-0.900529	0.424222	-0.991874	-0.049835	0.117059
434	689950377													0.133202	0.928116	-0.250979	-0.089868	-0.436499	-0.895205	0.100779	-0.898214	0.427849	-0.990842	-0.051768	0.124710
435	689967044													-0.437549	0.154964	-0.071562	-0.095883	-0.440729	-0.892505	0.107055	-0.896001	0.430954	-0.989619	-0.054226	0.133094
436	689983711													-0.546197	-0.217906	-0.007837	-0.102491	-0.443847	-0.890222	0.113617	-0.894302	0.432800	-0.988224	-0.056786	0.142086
437	690000378													-0.523719	-0.364475	0.074677	-0.110264	-0.445050	-0.888691	0.120624	-0.893527	0.432505	-0.986555	-0.059508	0.152208
438	690017045													-0.942096	-0.281799	-0.208106	-0.119320	-0.444702	-0.887695	0.128293	-0.893493	0.430361	-0.984532	-0.062535	0.163664
439	690033712													-1.033056	-0.155049	-0.345819	-0.129317	-0.440773	-0.888254	0.136298	-0.895175	0.424364	-0.982191	-0.066190	0.175838
440	690050379													-0.062840	0.381036	-0.151930	-0.139618	-0.435742	-0.889177	0.145172	-0.897277	0.416916	-0.979506	-0.070875	0.188534
441	690067046													0.741791	0.615836	-0.030963	-0.150397	-0.432768	-0.888872	0.155030	-0.898299	0.411127	-0.976395	-0.075969	0.202193
442	690083713													0.874545	0.550906	0.315307	-0.161499	-0.431919	-0.887336	0.164784	-0.898318	0.407273	-0.973018	-0.080445	0.216251
443	690100380													0.318468	0.253269	0.504092	-0.172782	-0.431265	-0.885526	0.173790	-0.898291	0.403572	-0.969507	-0.084166	0.230158
444	690117047													-0.354612	0.694736	0.400026	-0.184404	-0.429617	-0.883982	0.181898	-0.898787	0.398868	-0.965872	-0.087242	0.243886
445	690133714													-1.257159	0.532109	-0.033071	-0.197054	-0.426949	-0.882544	0.189970	-0.899761	0.392862	-0.961811	-0.090242	0.258409
446	690150381													-2.301048	0.034884	-0.737494	-0.211724	-0.422922	-0.881084	0.198507	-0.901340	0.384943	-0.956957	-0.093400	0.274789
447	690167048													-2.616188	-0.098475	-0.804337	-0.228941	-0.416917	-0.879640	0.208562	-0.903664	0.374022	-0.950835	-0.097831	0.293839
448	690183715													-1.554505	-0.665576	-0.679531	-0.249003	-0.410506	-0.877201	0.221183	-0.905897	0.361149	-0.942908	-0.104094	0.316368
449	690200382													-1.259801	-1.026275	0.105781	-0.272762	-0.405994	-0.872221	0.235922	-0.907143	0.348471	-0.932707	-0.110727	0.343217
450	690217049													-2.255427	-0.443102	0.978773	-0.299649	-0.402146	-0.865152	0.251438	-0.908050	0.335000	-0.920320	-0.117150	0.373211
451	690233716													-3.418821	-0.192799	1.620947	-0.329621	-0.397448	-0.856379	0.268088	-0.909137	0.318746	-0.905251	-0.124519	0.406222
452	690250383													-4.600357	-0.682912	2.538546	-0.362558	-0.391285	-0.845841	0.285674	-0.910562	0.298775	-0.887097	-0.133312	0.441912
453	690267050													-5.540986	-0.979004	3.745246	-0.398818	-0.383732	-0.832883	0.303266	-0.912327	0.275118	-0.865433	-0.142863	0.480225
454	690283717													-6.057599	-2.542545	3.848536	-0.437183	-0.377533	-0.816296	0.320337	-0.913470	0.250913	-0.840390	-0.151795	0.520291
455	690300384													-5.980131	-3.268636	3.532311	-0.476644	-0.371583	-0.796704	0.336167	-0.914438	0.225376	-0.812282	-0.160402	0.560776
456	690317051													-6.881841	-3.861433	3.381589	-0.515853	-0.366217	-0.774455	0.351034	-0.915003	0.198859	-0.781455	-0.169278	0.600561
457	690333718													-8.542371	-5.555406	2.668668	-0.552892	-0.361456	-0.750773	0.365438	-0.914925	0.171366	-0.748843	-0.179614	0.637945
458	690350385													-10.460999	-5.383646	-0.169221	-0.586335	-0.358521	-0.726411	0.378644	-0.914035	0.145494	-0.716128	-0.189743	0.671683
459	690367052													-6.729407	-0.256224	0.133606	-0.617079	-0.349344	-0.705105	0.385377	-0.915405	0.116270	-0.686074	-0.199983	0.699506
460	690383719													-3.315070	5.112758	2.615775	-0.646819	-0.343271	-0.681021	0.393214	-0.915239	0.087864	-0.653459	-0.210955	0.726973
461	690400386													-4.744440	4.049811	4.182971	-0.677244	-0.345899	-0.649380	0.406501	-0.911570	0.061614	-0.613267	-0.222246	0.757964
462	690417053													-7.130179	1.940335	3.299667	-0.703801	-0.350456	-0.617936	0.419768	-0.906907	0.036247	-0.573114	-0.233879	0.785392
463	690433720													-7.109704	0.548054	1.541669	-0.720496	-0.361042	-0.592059	0.434724	-0.900342	0.020005	-0.540278	-0.242968	0.805646
464	690450387													-4.908627	-1.202510	-1.301850	-0.729684	-0.374855	-0.571879	0.448728	-0.893571	0.013167	-0.515950	-0.247011	0.820232
465	690467054													-2.846227	0.535443	-3.143542	-0.736993	-0.379722	-0.559154	0.451907	-0.892007	0.010126	-0.502614	-0.245222	0.829002
466	690483721													-1.793311	1.861719	-3.635252	-0.739006	-0.386323	-0.551928	0.453125	-0.891282	0.017140	-0.498545	-0.237426	0.833716
467	690500388													-3.364514	1.733825	-3.872712	-0.729408	-0.406424	-0.550258	0.464010	-0.884990	0.038578	-0.502651	-0.227186	0.834103
468	690517055													-3.943346	2.065320	-3.887343	-0.710781	-0.427261	-0.558782	0.474975	-0.877464	0.066757	-0.518834	-0.217958	0.826623
469	690533722													-2.284145	1.716055	-4.110332	-0.687907	-0.441555	-0.576033	0.478579	-0.872627	0.097382	-0.545662	-0.208688	0.811605
470	690550389													-0.633070	1.660932	-4.232140	-0.660594	-0.456539	-0.595976	0.478111	-0.867881	0.134878	-0.578813	-0.195843	0.791594
471	690567056													-0.158502	1.660664	-4.360161	-0.626591	-0.478434	-0.615211	0.477007	-0.859694	0.182732	-0.616318	-0.178961	0.766893
472	690583723													-0.472506	0.847509	-4.749537	-0.585982	-0.504236	-0.634327	0.472735	-0.848515	0.237792	-0.658139	-0.160527	0.735584
473	690600390													-0.919322	0.121111	-4.412274	-0.542732	-0.524415	-0.656072	0.457545	-0.839648	0.292650	-0.704340	-0.141351	0.695648
474	690617057													-1.141658	-0.235757	-3.743853	-0.498233	-0.535176	-0.682166	0.428801	-0.835912	0.342610	-0.753587	-0.121814	0.645963
475	690633724													-1.154327	-0.702606	-2.392930	-0.451724	-0.538450	-0.711349	0.388456	-0.836493	0.386498	-0.803149	-0.101737	0.587028
476	690650391													-0.861281	-1.790182	-1.101318	-0.403107	-0.535062	-0.742438	0.339664	-0.840799	0.421528	-0.849784	-0.082258	0.520673
477	690667058													-1.089381	-2.006712	-0.040192	-0.352716	-0.524701	-0.774778	0.284298	-0.848942	0.445501	-0.891497	-0.063132	0.448607
478	690683725													-0.979756	-1.852239	1.327433	-0.301151	-0.498786	-0.812724	0.220259	-0.865628	0.449638	-0.927790	-0.043601	0.370547
479	690700392													1.843014	-0.914412	4.000832	-0.241317	-0.463355	-0.852683	0.154332	-0.885792	0.437669	-0.958096	-0.025980	0.285267
480	690717059													4.310658	1.667252	4.142607	-0.171619	-0.432593	-0.885105	0.092277	-0.901543	0.422735	-0.980832	-0.009125	0.194640
481	690733726													5.293713	2.388165	4.524244	-0.098471	-0.409463	-0.906997	0.034070	-0.912279	0.408149	-0.994557	0.009290	0.103784
482	690750393													6.096104	2.596081	4.962649	-0.023942	-0.394769	-0.918468	-0.020550	-0.918343	0.395251	-0.999502	0.028338	0.013875
483	690767060													6.808665	2.203511	5.181331	0.049534	-0.389668	-0.919622	-0.072500	-0.919726	0.385807	-0.996138	0.047562	-0.073809
484	690783727													8.476738	2.529679	5.767984	0.118552	-0.390226	-0.913055	-0.120492	-0.918398	0.376864	-0.985610	0.065337	-0.155897
485	690800394													9.237513	2.207262	1.519710	0.180162	-0.394523	-0.901051	-0.166409	-0.915061	0.367385	-0.969459	0.083754	-0.230511
486	690817061													8.983722	2.705277	-2.777353	0.229833	-0.405631	-0.884670	-0.210425	-0.908214	0.361759	-0.950210	0.103012	-0.294092
487	690833728													10.113149	2.971345	-4.973650	0.264127	-0.421789	-0.867370	-0.243426	-0.899345	0.363211	-0.933263	0.115206	-0.340216
488	690850395													9.314863	2.403105	-8.797190	0.282191	-0.432335	-0.856420	-0.260534	-0.893687	0.365302	-0.923304	0.120042	-0.364828
489	690867062													9.755329	2.655544	-11.295070	0.280436	-0.439813	-0.853182	-0.260451	-0.890369	0.373374	-0.923862	0.117505	-0.364241
490	690883729													10.524119	3.865790	-9.375769	0.258168	-0.452262	-0.853703	-0.247371	-0.885146	0.394113	-0.933894	0.109434	-0.340392
491	690900396													9.946953	2.342928	-4.555545	0.220951	-0.471488	-0.853744	-0.224644	-0.876445	0.425886	-0.949061	0.097688	-0.299568
492	690917063													-0.198345	-2.450363	5.109390	0.172813	-0.518244	-0.837591	-0.203974	-0.850781	0.484321	-0.963603	0.087150	-0.252734
493	690933730													-12.248301	-7.173158	21.355665	0.147052	-0.571872	-0.807055	-0.197127	-0.816501	0.542648	-0.969287	0.079295	-0.232799
494	690950397													3.139976	-2.125627	6.407288	0.170752	-0.527928	-0.831947	-0.176847	-0.847057	0.501219	-0.969314	0.061543	-0.237999
495	690967064													11.871844	1.426104	-8.475322	0.167239	-0.469367	-0.867021	-0.151115	-0.881218	0.447905	-0.974267	0.056113	-0.218303
496	690983731													6.142009	-0.283371	1.370281	0.116793	-0.484154	-0.867153	-0.127511	-0.873212	0.470363	-0.984937	0.055637	-0.163720
497	691000398													5.486515	6.789189	3.827502	0.086644	-0.520137	-0.849677	-0.102136	-0.853028	0.511773	-0.990990	0.042440	-0.127035
498	691017065													5.545417	4.351758	-1.350235	0.067232	-0.539506	-0.839293	-0.069290	-0.841690	0.535496	-0.995328	0.022153	-0.093971
499	691033732													6.476090	0.885888	-1.625264	0.039088	-0.565293	-0.823964	-0.043233	-0.824778	0.563801	-0.998300	0.013585	-0.056678
500	691050399													0.043369	-1.009726	-0.156901	0.022149	-0.574312	-0.818337	-0.022726	-0.818615	0.573893	-0.999496	0.005886	-0.031184
501	691067066													0.754767	-1.745010	-0.349751	0.007764	-0.567553	-0.823300	-0.006317	-0.823336	0.567519	-0.999950	0.000795	-0.009977
502	691083733													1.720571	-0.399351	-0.118896	-0.007349	-0.553006	-0.833145	0.009796	-0.833167	0.552935	-0.999925	-0.004098	0.011541
503	691100400													2.292496	1.229687	0.566640	-0.021501	-0.534243	-0.845057	0.024924	-0.845276	0.533748	-0.999458	-0.009586	0.031490
504	691117067													3.142125	2.185887	1.241857	-0.033140	-0.519938	-0.853561	0.039046	-0.854051	0.518721	-0.998688	-0.016138	0.048604
505	691133734													3.101109	2.729817	0.871058	-0.044947	-0.517622	-0.854428	0.052983	-0.855324	0.515378	-0.997583	-0.022106	0.065870
506	691150401													2.427837	3.113517	0.055792	-0.056475	-0.526793	-0.848115	0.065429	-0.849598	0.523357	-0.996258	-0.025935	0.082449
507	691167068													1.637141	2.269992	-0.499982	-0.067285	-0.542616	-0.837282	0.076945	-0.839506	0.537874	-0.994762	-0.028234	0.098238
508	691183735													0.429494	0.375537	-0.262127	-0.078170	-0.558008	-0.826146	0.088100	-0.829306	0.551806	-0.993040	-0.029649	0.113988
509	691200402													-0.323308	-0.884752	0.331036	-0.088859	-0.566054	-0.819565	0.097547	-0.823810	0.558410	-0.991256	-0.030326	0.128420
510	691217069													0.372395	-0.814500	0.558588	-0.098060	-0.565745	-0.818729	0.104954	-0.823985	0.556806	-0.989631	-0.031329	0.140177
511	691233736													1.449416	-0.220032	0.322401	-0.106233	-0.560964	-0.820996	0.111011	-0.827197	0.550837	-0.988125	-0.032623	0.150148
512	691250403													1.932691	0.321426	0.201533	-0.113867	-0.556634	-0.822917	0.116250	-0.830079	0.545394	-0.986671	-0.033562	0.159227
513	691267070													1.524661	0.857315	0.277203	-0.120820	-0.555295	-0.822830	0.121641	-0.830937	0.542906	-0.985193	-0.034496	0.167941
514	691283737													1.033075	0.596769	0.283226	-0.126566	-0.555905	-0.821554	0.126976	-0.830480	0.542384	-0.983798	-0.035671	0.175697
515	691300404													0.576686	0.031734	0.136150	-0.131774	-0.557228	-0.819837	0.132111	-0.829543	0.542591	-0.982437	-0.036810	0.182928
516	691317071													0.171472	-0.296421	0.116315	-0.136713	-0.558285	-0.818308	0.137276	-0.828771	0.542489	-0.981053	-0.038168	0.189943
517	691333738													-0.533759	-0.069715	0.381242	-0.142183	-0.557323	-0.818032	0.142400	-0.829348	0.540282	-0.979544	-0.039669	0.197281
518	691350405													-0.583252	0.261634	0.294353	-0.147959	-0.554528	-0.818906	0.147303	-0.831140	0.536198	-0.977962	-0.041292	0.204658
519	691367072													-1.001976	0.171397	-0.305918	-0.154596	-0.550765	-0.820218	0.152819	-0.833538	0.530905	-0.976087	-0.043269	0.213029
520	691383739													-1.337135	0.168492	-0.653201	-0.162545	-0.544782	-0.822673	0.159021	-0.837326	0.523066	-0.973803	-0.045800	0.222735
521	691400406													-1.027840	0.642426	-0.846779	-0.171919	-0.537706	-0.825419	0.166287	-0.841711	0.513684	-0.970975	-0.048945	0.234120
522	691417073													-0.598436	1.182259	-0.470285	-0.183088	-0.531706	-0.826903	0.174898	-0.845319	0.504823	-0.967414	-0.052197	0.247762
523	691433740													-0.665706	1.271464	-0.171697	-0.195673	-0.527857	-0.826486	0.184568	-0.847539	0.497606	-0.963144	-0.055175	0.263267
524	691450407													-1.001134	0.625896	-0.204386	-0.209775	-0.524917	-0.824898	0.194756	-0.849196	0.490852	-0.958157	-0.057685	0.280371
525	691467074													-1.504121	-0.257430	-0.295911	-0.226306	-0.520524	-0.823311	0.205157	-0.851750	0.482112	-0.952206	-0.059804	0.299545
526	691483741													-2.257932	-0.349393	-0.139640	-0.245669	-0.514603	-0.821481	0.215737	-0.855223	0.471223	-0.945042	-0.061459	0.321121
527	691500408													-1.808324	0.264802	0.272397	-0.266970	-0.507364	-0.819334	0.227105	-0.859370	0.458156	-0.936563	-0.063761	0.344651
528	691517075													-1.371867	-0.547730	0.129451	-0.290882	-0.501400	-0.814853	0.240637	-0.862643	0.444905	-0.926003	-0.066669	0.371583
529	691533742													-1.862929	-0.842055	0.378385	-0.318013	-0.496794	-0.807505	0.255227	-0.865137	0.431736	-0.913086	-0.068800	0.401920
530	691550409													-2.328184	-0.108045	1.561188	-0.347653	-0.492377	-0.797936	0.271102	-0.867457	0.417160	-0.897575	-0.071295	0.435058
531	691567076													-2.820643	-0.168627	2.017063	-0.378984	-0.488736	-0.785817	0.288286	-0.869259	0.401598	-0.879354	-0.074341	0.470330
532	691583743													-3.900650	-0.315231	2.699998	-0.412475	-0.484904	-0.771189	0.305759	-0.871143	0.384215	-0.858123	-0.077319	0.507588
533	691600410													-5.198470	-0.242952	3.897838	-0.447793	-0.481260	-0.753571	0.322624	-0.872982	0.365808	-0.833903	-0.079314	0.546182
534	691617077													-6.371254	-1.354974	4.038760	-0.483910	-0.477098	-0.733627	0.338418	-0.875120	0.345889	-0.807034	-0.080894	0.584937
535	691633744													-7.466494	-2.302722	3.579986	-0.520311	-0.470672	-0.712562	0.352516	-0.878373	0.322790	-0.777823	-0.083238	0.622946
536	691650411													-9.567043	-4.095352	3.107932	-0.556604	-0.461669	-0.690691	0.365116	-0.882722	0.295790	-0.746245	-0.087544	0.659889
537	691667078													-11.571433	-4.231489	1.435256	-0.589872	-0.453436	-0.668167	0.376636	-0.886429	0.269052	-0.714280	-0.092949	0.693660
538	691683745													-7.531032	-0.347937	0.455899	-0.619583	-0.441908	-0.648717	0.382828	-0.891629	0.241745	-0.685244	-0.098566	0.721613
539	691700412													-1.825798	4.642011	3.037051	-0.647679	-0.430691	-0.628504	0.388102	-0.896356	0.214297	-0.655659	-0.105128	0.747703
540	691717079													-2.469270	4.959117	4.728850	-0.674269	-0.431566	-0.599259	0.403268	-0.894973	0.190784	-0.618657	-0.113023	0.777489
541	691733746													-5.752879	2.556503	3.079896	-0.697088	-0.440950	-0.565359	0.424576	-0.889273	0.170084	-0.577757	-0.121474	0.807119
542	691750413													-6.402856	0.226578	1.141420	-0.715150	-0.444800	-0.539179	0.437810	-0.886377	0.150527	-0.544870	-0.128409	0.828630
543	691767080													-4.326920	-0.972523	-1.014377	-0.729235	-0.441018	-0.523182	0.439926	-0.887800	0.135185	-0.524100	-0.131579	0.841431
544	691783747													-2.290045	-0.149527	-3.613671	-0.737536	-0.439684	-0.512561	0.439589	-0.888762	0.129862	-0.512643	-0.129539	0.848774
545	691800414													-1.160339	2.107229	-3.629056	-0.740869	-0.440994	-0.506595	0.437805	-0.889076	0.133680	-0.509353	-0.122750	0.851758
546	691817081													-1.746454	2.156245	-4.191758	-0.735130	-0.451278	-0.505897	0.441669	-0.884952	0.147610	-0.514308	-0.114927	0.849870
547	691833748													-2.695143	2.241439	-4.273891	-0.719956	-0.469022	-0.511549	0.449511	-0.876718	0.171190	-0.528775	-0.106698	0.842029
548	691850415													-1.498781	2.029631	-3.817135	-0.698867	-0.484277	-0.526366	0.452467	-0.869288	0.199030	-0.553949	-0.099068	0.826635
549	691867082													0.792390	1.900363	-3.853702	-0.672592	-0.501595	-0.544079	0.452931	-0.860463	0.233360	-0.585212	-0.089474	0.805929
550	691883749													1.207306	1.306405	-4.351698	-0.637587	-0.529708	-0.559368	0.455960	-0.844734	0.280225	-0.620954	-0.076382	0.780117
551	691900416													0.253834	-0.618826	-5.367560	-0.594103	-0.565164	-0.572391	0.458072	-0.822638	0.336804	-0.661220	-0.062100	0.747617
552	691917083													-0.656335	-1.948879	-4.648999	-0.550731	-0.591955	-0.588459	0.447084	-0.804552	0.390912	-0.704848	-0.047804	0.707745
553	691933750													-0.628145	-2.035463	-3.332288	-0.509207	-0.608621	-0.608513	0.422759	-0.792747	0.439121	-0.749655	-0.033650	0.660972
554	691950417													-1.416513	-1.824285	-2.888013	-0.472854	-0.615931	-0.630110	0.386802	-0.787618	0.479626	-0.791703	-0.016935	0.610672
555	691967084													-1.546504	-3.594682	-1.046191	-0.442572	-0.604886	-0.661999	0.336875	-0.796312	0.502397	-0.831051	-0.000663	0.556196
556	691983751													0.681822	-1.970424	1.811935	-0.404901	-0.593010	-0.695984	0.285896	-0.805114	0.519669	-0.868515	0.011436	0.495531
557	692000418													1.576947	-0.857910	2.284387	-0.364976	-0.575968	-0.731473	0.231253	-0.817132	0.528031	-0.901839	0.023563	0.431429
558	692017085													2.946769	-0.454761	3.679829	-0.322480	-0.552681	-0.768473	0.172548	-0.832565	0.526368	-0.930717	0.037144	0.363849
559	692033752													5.142994	0.884818	3.735025	-0.276498	-0.533716	-0.799185	0.115772	-0.844048	0.523622	-0.954016	0.052257	0.295166
560	692050419													6.468907	1.775235	3.778698	-0.230222	-0.526406	-0.818471	0.063028	-0.847363	0.527260	-0.971095	0.069801	0.228260
561	692067086													6.838189	2.564016	2.746928	-0.185008	-0.533369	-0.825403	0.013160	-0.841171	0.540609	-0.982649	0.089155	0.162642
562	692083753													6.905526	2.485965	1.421430	-0.143794	-0.552931	-0.820726	-0.035313	-0.825949	0.562637	-0.988977	0.109886	0.099240
563	692100420													6.690745	1.765507	1.245701	-0.108669	-0.582517	-0.805522	-0.083376	-0.802124	0.591308	-0.990575	0.131418	0.038599
564	692117087													6.508892	1.301119	1.770749	-0.079135	-0.618719	-0.781617	-0.132001	-0.770667	0.623416	-0.988086	0.152508	-0.020685
565	692133754													6.556185	1.626829	2.104395	-0.053769	-0.657846	-0.751230	-0.179569	-0.733684	0.655334	-0.982275	0.170135	-0.078679
566	692150421													6.418246	1.817295	0.821762	-0.034256	-0.696760	-0.716486	-0.223104	-0.693484	0.685058	-0.974193	0.183318	-0.131694
567	692167088													6.810848	1.873616	-1.124079	-0.020217	-0.730038	-0.683107	-0.259506	-0.655998	0.708748	-0.965530	0.191599	-0.176187
568	692183755													7.755210	1.465502	-3.193798	-0.011974	-0.756151	-0.654287	-0.285590	-0.624493	0.726944	-0.958277	0.195562	-0.208471
569	692200422													8.511799	1.061096	-4.528110	-0.013604	-0.779607	-0.626121	-0.300628	-0.594019	0.746167	-0.953644	0.198381	-0.226290
570	692217089													8.028163	0.722708	-4.656721	-0.026385	-0.802294	-0.596346	-0.304272	-0.561802	0.769283	-0.952220	0.201749	-0.229292
571	692233756													6.666139	0.734986	-3.977652	-0.044728	-0.820049	-0.570542	-0.296940	-0.534388	0.791363	-0.953848	0.204813	-0.219604
572	692250423													6.172112	0.720916	-3.371866	-0.064582	-0.831366	-0.551961	-0.281101	-0.515561	0.809431	-0.957503	0.207432	-0.200402
573	692267090													5.611577	0.991662	-2.210750	-0.087430	-0.839659	-0.536031	-0.258981	-0.500431	0.826134	-0.961917	0.211051	-0.173703
574	692283757													3.746197	1.860992	-0.947191	-0.111049	-0.848255	-0.517814	-0.234064	-0.484056	0.843151	-0.965858	0.214833	-0.144792
575	692300424													-4.057576	2.295862	2.437454	-0.134063	-0.865845	-0.482017	-0.209006	-0.450762	0.867831	-0.968681	0.217088	-0.120536
576	692317091													-12.507698	0.023612	10.951006	-0.141699	-0.884514	-0.444474	-0.195643	-0.415125	0.888479	-0.970384	0.212855	-0.114227
577	692333758													-0.808119	-0.563440	3.555748	-0.114582	-0.868762	-0.481791	-0.196885	-0.455505	0.868188	-0.973708	0.194336	-0.118854
578	692350425													8.052371	3.137427	-1.053318	-0.108129	-0.845005	-0.523713	-0.190748	-0.499379	0.845125	-0.975666	0.191280	-0.107186
579	692367092													8.869126	0.008631	3.633678	-0.128889	-0.843185	-0.521946	-0.164011	-0.500962	0.849787	-0.978002	0.195133	-0.073723
580	692383759													3.552526	-0.280014	1.856669	-0.145117	-0.859754	-0.489657	-0.130795	-0.473883	0.870820	-0.980731	0.190415	-0.043683
581	692400426													1.693795	-0.575955	-1.505738	-0.151543	-0.867722	-0.473385	-0.108984	-0.461328	0.880511	-0.982424	0.185026	-0.024657
582	692417093													3.013691	-2.164732	-0.880532	-0.157609	-0.877910	-0.452143	-0.089812	-0.443224	0.891900	-0.983409	0.181180	-0.008991
583	692433760													2.503805	0.252362	-0.736128	-0.164243	-0.888305	-0.428880	-0.072536	-0.422731	0.903348	-0.983749	0.179478	0.004997
584	692450427													-0.240145	0.878686	1.016774	-0.167240	-0.891991	-0.419980	-0.058777	-0.416201	0.907371	-0.984163	0.176434	0.017177
585	692467094													-0.050584	0.220851	1.083535	-0.167116	-0.893439	-0.416939	-0.047544	-0.415091	0.908537	-0.984790	0.171654	0.026891
586	692483761													1.393463	0.006926	-0.210546	-0.167184	-0.894260	-0.415150	-0.037215	-0.415052	0.909036	-0.985223	0.167426	0.036110
587	692500428													1.415749	0.682761	0.152320	-0.168861	-0.895831	-0.411063	-0.026023	-0.412855	0.910425	-0.985296	0.164432	0.046403
588	692517095													1.396748	0.632366	0.664651	-0.169127	-0.898447	-0.405202	-0.014549	-0.408804	0.912506	-0.985487	0.160224	0.056068
589	692533762													1.286513	0.658892	0.271412	-0.168788	-0.902816	-0.395518	-0.003588	-0.400710	0.916198	-0.985646	0.156062	0.064395
590	692550429													0.685259	0.461763	-0.074153	-0.167800	-0.907698	-0.384613	0.005990	-0.391076	0.920339	-0.985803	0.152129	0.071060
591	692567096													-0.600566	-0.119774	-0.162446	-0.166686	-0.911337	-0.376405	0.015107	-0.384061	0.923184	-0.985894	0.148196	0.077785
592	692583763													-0.619385	0.058407	0.266300	-0.165492	-0.912921	-0.373079	0.022728	-0.381725	0.923996	-0.985949	0.144435	0.083922
593	692600430													0.510707	0.810710	0.240670	-0.164229	-0.913504	-0.372208	0.029421	-0.381699	0.923818	-0.985983	0.140767	0.089562
594	692617097													1.372912	1.081004	0.025813	-0.162806	-0.914512	-0.370353	0.036065	-0.380626	0.924025	-0.985999	0.137080	0.094951
595	692633764													0.967661	0.611596	-0.060141	-0.161525	-0.916549	-0.365853	0.042384	-0.376822	0.925316	-0.985958	0.133955	0.099713
596	692650431													0.395567	0.211174	0.132363	-0.160094	-0.918575	-0.361372	0.047870	-0.372888	0.926641	-0.985940	0.131050	0.103669
597	692667098													0.018495	0.074992	0.069256	-0.158391	-0.920070	-0.358306	0.052616	-0.370236	0.927446	-0.985973	0.128047	0.107052
598	692683765													0.131895	0.323152	-0.093957	-0.156551	-0.920919	-0.356932	0.056499	-0.369146	0.927652	-0.986053	0.125058	0.109822
599	692700432													0.830170	0.600401	-0.055945	-0.154491	-0.921593	-0.356089	0.059800	-0.368477	0.927711	-0.986183	0.122029	0.112038
600	692717099													1.182903	0.600032	0.107136	-0.152128	-0.922878	-0.353769	0.063066	-0.366270	0.928369	-0.986347	0.118920	0.113922
601	692733766													0.834050	0.496180	0.075689	-0.149361	-0.925171	-0.348926	0.066085	-0.361436	0.930052	-0.986572	0.115855	0.115125
602	692750433													0.009824	0.582388	-0.175817	-0.146340	-0.927940	-0.342800	0.068858	-0.355246	0.932233	-0.986835	0.112819	0.115883
603	692767100													-0.131767	0.942376	-0.150356	-0.143090	-0.930567	-0.337001	0.071669	-0.349354	0.934246	-0.987111	0.109529	0.116682
604	692783767													0.241115	1.077926	-0.102991	-0.139573	-0.933051	-0.331566	0.074898	-0.343832	0.936040	-0.987375	0.105812	0.117874
605	692800434													0.628365	0.884219	0.040284	-0.136062	-0.935761	-0.325330	0.078533	-0.337538	0.938030	-0.987583	0.102081	0.119414
606	692817101													0.411868	0.379058	0.246915	-0.132578	-0.939138	-0.316926	0.082261	-0.329071	0.940715	-0.987753	0.098648	0.120882
607	692833768													-0.446761	-0.014949	0.107745	-0.129004	-0.942898	-0.307086	0.086220	-0.319166	0.943769	-0.987889	0.095273	0.122470
608	692850435													-0.784617	-0.040241	-0.014946	-0.125660	-0.946501	-0.297231	0.090257	-0.309270	0.946681	-0.987959	0.092133	0.124291
609	692867102													-0.258814	0.033971	-0.044922	-0.122908	-0.949888	-0.287412	0.094905	-0.299530	0.949355	-0.987870	0.089406	0.126964
610	692883769													-0.424695	-0.171803	-0.207050	-0.120618	-0.953529	-0.276106	0.101096	-0.288490	0.952131	-0.987538	0.086930	0.131195
611	692900436													-0.836416	0.153150	-0.281564	-0.119163	-0.956934	-0.264721	0.108031	-0.277534	0.954622	-0.986980	0.085158	0.136450
612	692917103													-0.932439	0.444137	0.027281	-0.118668	-0.959923	-0.253902	0.115549	-0.267322	0.956654	-0.986188	0.084186	0.142641
613	692933770													-1.137347	0.467094	0.085493	-0.118712	-0.961508	-0.247809	0.123285	-0.261916	0.957184	-0.985245	0.083078	0.149632
614	692950437													-0.810779	0.408793	0.059019	-0.119286	-0.961777	-0.246488	0.130445	-0.261290	0.956406	-0.984254	0.081932	0.156627
615	692967104													-0.065986	0.492260	0.033278	-0.120627	-0.961383	-0.247369	0.137192	-0.262943	0.955008	-0.983172	0.081263	0.163612
616	692983771													0.346745	0.718809	0.098915	-0.122794	-0.960780	-0.248642	0.143534	-0.265097	0.953479	-0.981998	0.081392	0.170457
617	693000438													0.790647	0.268072	0.178830	-0.125174	-0.959885	-0.250902	0.148817	-0.268196	0.951801	-0.980910	0.081803	0.176418
618	693017105													0.871233	-0.227758	0.240696	-0.126675	-0.959548	-0.251438	0.153877	-0.269420	0.950650	-0.979936	0.081734	0.181781
619	693033772													0.406260	-0.189921	0.275977	-0.127608	-0.959412	-0.251486	0.158395	-0.270017	0.949738	-0.979095	0.081360	0.186423
620	693050439													0.047448	-0.061848	0.348399	-0.128213	-0.959190	-0.252023	0.162491	-0.271003	0.948765	-0.978345	0.080693	0.190606
621	693067106													0.563450	0.010524	0.275098	-0.127950	-0.958798	-0.253646	0.165875	-0.272833	0.947654	-0.977811	0.079178	0.193949
622	693083773													0.768711	0.117302	0.070628	-0.127199	-0.958729	-0.254281	0.169325	-0.273589	0.946825	-0.977317	0.077379	0.197137
623	693100440													0.214156	0.059121	0.035825	-0.126530	-0.958626	-0.255001	0.172593	-0.274421	0.945994	-0.976832	0.075685	0.200175
624	693117107													-0.305796	-0.060218	-0.023190	-0.125812	-0.958248	-0.256771	0.175495	-0.276244	0.944929	-0.976408	0.073822	0.202922
625	693133774													-0.341777	0.340554	0.004669	-0.125523	-0.957357	-0.260216	0.178351	-0.279793	0.943349	-0.975928	0.072002	0.205866
626	693150441													0.040794	0.576075	0.167047	-0.125817	-0.955952	-0.265191	0.181042	-0.284951	0.941290	-0.975394	0.070420	0.208919
627	693167108													0.473670	0.447012	-0.151237	-0.125795	-0.954782	-0.269381	0.183954	-0.289278	0.939404	-0.974852	0.068618	0.212025
628	693183775													0.257219	0.641786	0.025975	-0.126217	-0.954323	-0.270806	0.187382	-0.291011	0.938190	-0.974144	0.067671	0.215554
629	693200442													-0.101858	0.704045	0.067359	-0.126900	-0.953852	-0.272146	0.190562	-0.292697	0.937024	-0.973439	0.067048	0.218911
630	693217109													-0.215709	0.572372	-0.048038	-0.127756	-0.953159	-0.274164	0.193915	-0.295099	0.935582	-0.972664	0.066361	0.222533
631	693233776													-0.307698	0.478536	-0.041532	-0.129137	-0.952180	-0.276905	0.197313	-0.298333	0.933844	-0.971798	0.065957	0.226403
632	693250443													-0.056235	0.377006	0.164984	-0.130681	-0.950850	-0.280727	0.200682	-0.302663	0.931731	-0.970901	0.065423	0.230370
633	693267110													0.201225	0.250457	0.007565	-0.131868	-0.949334	-0.285264	0.204071	-0.307612	0.929371	-0.970034	0.064340	0.234295
634	693283777													-0.127646	0.126945	0.186878	-0.133541	-0.947647	-0.290055	0.207654	-0.312936	0.926796	-0.969044	0.063534	0.238573
635	693300444													-0.474119	0.001784	0.192013	-0.135678	-0.945278	-0.296716	0.210756	-0.320168	0.923620	-0.968077	0.062780	0.242662
636	693317111													0.166444	0.318271	0.059133	-0.137708	-0.942414	-0.304781	0.213368	-0.328714	0.920012	-0.967218	0.061663	0.246348
637	693333778													0.823378	0.485704	0.216318	-0.139257	-0.939789	-0.312097	0.216188	-0.336418	0.916562	-0.966370	0.060166	0.250019
638	693350445													0.320923	0.175369	0.079923	-0.140338	-0.937599	-0.318141	0.219079	-0.342762	0.913520	-0.965562	0.058503	0.253511
639	693367112													0.138666	0.218937	0.147687	-0.140961	-0.935806	-0.323106	0.221621	-0.347909	0.910957	-0.964891	0.056802	0.256436
640	693383779													-0.618427	0.364338	0.088892	-0.141788	-0.933537	-0.329250	0.224275	-0.354256	0.907857	-0.964156	0.054880	0.259598
641	693400446													-0.475116	0.374551	-0.125843	-0.143194	-0.930325	-0.337624	0.226854	-0.362910	0.903788	-0.963345	0.052826	0.263015
642	693417113													0.060744	0.638852	-0.012254	-0.144965	-0.927314	-0.345072	0.230004	-0.370784	0.899787	-0.962332	0.051070	0.267037
643	693433780													-0.080154	0.839016	0.184243	-0.146783	-0.925097	-0.350216	0.234064	-0.376479	0.896369	-0.961077	0.049598	0.271793
644	693450447													-0.583523	0.845017	-0.108006	-0.149212	-0.922937	-0.354856	0.238151	-0.381853	0.893013	-0.959698	0.048740	0.276775
645	693467114													-0.423224	0.890589	-0.060561	-0.152453	-0.920178	-0.360596	0.242217	-0.388522	0.889034	-0.958169	0.048193	0.282115
646	693483781													-0.438787	0.829907	-0.087764	-0.156507	-0.916758	-0.367505	0.246795	-0.396586	0.884201	-0.956346	0.047685	0.288320
647	693500448													-0.541104	0.600209	-0.023832	-0.161420	-0.912308	-0.376348	0.251317	-0.406777	0.878278	-0.954350	0.047189	0.294940
648	693517115													-0.039820	0.597883	0.214766	-0.166483	-0.906995	-0.386838	0.255685	-0.418603	0.871434	-0.952317	0.046170	0.301596
649	693533782													0.251683	0.522852	0.238479	-0.171486	-0.901312	-0.397780	0.260063	-0.430853	0.864137	-0.950242	0.044740	0.308283
650	693550449													0.277604	0.079773	0.239189	-0.176306	-0.895405	-0.408860	0.264259	-0.443174	0.856600	-0.948200	0.042979	0.314753
651	693567116													0.273781	-0.061620	0.211138	-0.180982	-0.889442	-0.419689	0.268218	-0.455197	0.849031	-0.946205	0.041091	0.320947
652	693583783													0.263370	0.179117	0.247882	-0.185648	-0.883482	-0.430109	0.271968	-0.466818	0.841495	-0.944229	0.039246	0.326943
653	693600450													0.565156	0.360029	0.222724	-0.190035	-0.877866	-0.439587	0.275732	-0.477448	0.834275	-0.942262	0.037333	0.332788
654	693617117													0.199041	0.054073	0.075089	-0.194602	-0.872531	-0.448130	0.279536	-0.487251	0.827312	-0.940207	0.035728	0.338724
655	693633784													-0.171654	-0.091994	0.080271	-0.199827	-0.866518	-0.457401	0.283069	-0.497964	0.819697	-0.938052	0.034322	0.344791
656	693650451													-0.128368	0.355554	0.111881	-0.205475	-0.860068	-0.466973	0.286562	-0.509115	0.811594	-0.935768	0.032946	0.351073
657	693667118													-0.252449	0.554826	0.025159	-0.211795	-0.852918	-0.477152	0.290148	-0.521090	0.802670	-0.933251	0.031557	0.357837
658	693683785													-0.325046	0.854332	0.023335	-0.219024	-0.845680	-0.486677	0.293895	-0.532802	0.793566	-0.930405	0.030778	0.365238
659	693700452													-0.962584	1.029954	0.063621	-0.227472	-0.837851	-0.496249	0.298145	-0.545059	0.783595	-0.927020	0.030291	0.373786
660	693717119													-1.326585	0.712887	-0.396655	-0.237381	-0.828902	-0.506530	0.302887	-0.558596	0.772159	-0.922989	0.029875	0.383664
661	693733786													-1.602110	0.608146	-0.474645	-0.249679	-0.818862	-0.516842	0.308213	-0.573192	0.759247	-0.917968	0.030271	0.395498
662	693750453													-1.667747	0.615226	-0.333853	-0.263841	-0.808535	-0.525984	0.314804	-0.587627	0.745381	-0.911749	0.031081	0.409570
663	693767120													-1.239836	0.910719	0.013399	-0.279262	-0.798562	-0.533209	0.323125	-0.601071	0.730961	-0.904214	0.031836	0.425892
664	693783787													-1.484115	0.398830	0.433383	-0.295402	-0.789992	-0.537262	0.333450	-0.612249	0.716911	-0.895292	0.032627	0.444283
665	693800454													-2.448614	-0.319113	0.996667	-0.313097	-0.782041	-0.538871	0.345196	-0.622302	0.702553	-0.884766	0.033951	0.464798
666	693817121													-2.758233	-0.033722	1.911221	-0.332160	-0.775852	-0.536398	0.357781	-0.629823	0.689431	-0.872733	0.037089	0.486787
667	693833788													-3.128435	0.037868	2.252663	-0.351873	-0.772102	-0.529192	0.371742	-0.634119	0.678013	-0.859066	0.041851	0.510152
668	693850455													-3.910635	-0.313215	1.999289	-0.372279	-0.769501	-0.518919	0.387593	-0.636917	0.666414	-0.843315	0.046963	0.535364
669	693867122													-5.197667	-1.276458	1.694484	-0.393046	-0.767259	-0.506783	0.404650	-0.639229	0.653945	-0.825696	0.051961	0.561718
670	693883789													-5.570520	-1.200065	1.948510	-0.414130	-0.763656	-0.495304	0.421298	-0.643179	0.639397	-0.806849	0.056123	0.588086
671	693900456													-5.363638	-1.880310	1.034916	-0.435089	-0.758775	-0.484725	0.437643	-0.648697	0.622624	-0.786871	0.058760	0.614314
672	693917123													-5.370044	-2.312507	0.785448	-0.456691	-0.751043	-0.476830	0.452445	-0.657578	0.602399	-0.765981	0.059371	0.640116
673	693933790													-4.914565	-1.693961	1.385864	-0.479197	-0.739279	-0.473114	0.463898	-0.670919	0.578503	-0.745097	0.057740	0.664452
674	693950457													-3.469564	-0.466875	1.601345	-0.503185	-0.722755	-0.473740	0.470566	-0.688955	0.551279	-0.724825	0.054469	0.686776
675	693967124													-1.867834	0.569844	2.872457	-0.529462	-0.700916	-0.477899	0.472508	-0.711521	0.520072	-0.704562	0.049547	0.707911
676	693983791													-0.460127	0.974703	3.242335	-0.555780	-0.677682	-0.481515	0.473493	-0.734127	0.486685	-0.683311	0.042496	0.728890
677	694000458													-0.197226	1.652009	2.293591	-0.577114	-0.664045	-0.475378	0.479781	-0.746738	0.460643	-0.660871	0.037766	0.749549
678	694017125													-1.192441	1.738161	1.071747	-0.592119	-0.660046	-0.462315	0.491241	-0.750422	0.442209	-0.638810	0.034731	0.768581
679	694033792													-1.297630	1.074716	0.055790	-0.603975	-0.656606	-0.451756	0.501577	-0.753638	0.424794	-0.619383	0.029975	0.784517
680	694050459													-0.675132	1.146014	-1.047620	-0.615954	-0.647924	-0.448103	0.506098	-0.761364	0.405203	-0.603710	0.022802	0.796878
681	694067126													-1.071485	1.678505	-3.350411	-0.622463	-0.645871	-0.442031	0.512607	-0.763229	0.393340	-0.591418	0.018252	0.806159
682	694083793													-1.435407	1.931342	-3.536665	-0.622483	-0.649374	-0.436839	0.518984	-0.760290	0.390659	-0.585808	0.016466	0.810282
683	694100460													-0.705792	1.719554	-3.518445	-0.620495	-0.648837	-0.440450	0.519297	-0.760820	0.389209	-0.587636	0.012777	0.809024
684	694117127													-0.566718	0.474025	-4.282495	-0.616816	-0.646098	-0.449550	0.514724	-0.763194	0.390632	-0.595480	0.009554	0.803313
685	694133794													-1.173318	-0.202476	-4.496365	-0.611677	-0.642338	-0.461793	0.504294	-0.766348	0.397992	-0.609540	0.010563	0.792685
686	694150461													-1.117160	-0.041504	-3.634926	-0.605939	-0.635333	-0.478738	0.486424	-0.772094	0.408978	-0.629468	0.014946	0.776883
687	694167128													-0.374518	0.279452	-2.603587	-0.597264	-0.629502	-0.496994	0.465954	-0.776699	0.423822	-0.652812	0.021557	0.757213
688	694183795													-0.072904	0.153007	-2.036841	-0.584411	-0.626946	-0.515173	0.445190	-0.778515	0.442402	-0.678432	0.029195	0.734083
689	694200462													-0.320980	-0.216449	-1.849165	-0.567860	-0.627227	-0.533030	0.423654	-0.777923	0.464061	-0.705728	0.037701	0.707479
690	694217129													-0.451215	-0.296932	-1.249905	-0.548300	-0.630759	-0.549099	0.401658	-0.774531	0.488643	-0.733510	0.047373	0.678025
691	694233796													-0.099411	0.251723	-0.629598	-0.524806	-0.638248	-0.563221	0.380008	-0.767738	0.515919	-0.761690	0.056729	0.645453
692	694250463													-0.112467	0.449999	-0.415482	-0.498612	-0.646794	-0.577099	0.356401	-0.759854	0.543691	-0.790167	0.065412	0.609390
693	694267130													-0.491886	0.206871	-0.171695	-0.470972	-0.653943	-0.592068	0.328954	-0.752948	0.569963	-0.818520	0.073674	0.569734
694	694283797													-0.779179	-0.110925	0.176894	-0.442783	-0.658494	-0.608547	0.297463	-0.748149	0.593118	-0.845848	0.081602	0.527145
695	694300464													-0.832252	-0.322125	0.799312	-0.414308	-0.659764	-0.626945	0.262618	-0.746208	0.611723	-0.871425	0.088795	0.482426
696	694317131													-0.442025	-0.260017	1.449665	-0.385076	-0.657450	-0.647669	0.224310	-0.747418	0.625341	-0.895210	0.095525	0.435286
697	694333798													0.401092	0.201592	1.945529	-0.354966	-0.651170	-0.670803	0.182636	-0.752005	0.633350	-0.916866	0.102305	0.385863
698	694350465													1.859943	0.729518	2.378684	-0.323000	-0.644113	-0.693390	0.140215	-0.757145	0.638021	-0.935954	0.108857	0.334872
699	694367132													2.817398	0.708509	2.313131	-0.289482	-0.640649	-0.711175	0.099445	-0.759096	0.643338	-0.952004	0.115512	0.283454
700	694383799													3.104788	0.599142	2.246041	-0.255779	-0.641847	-0.722918	0.059519	-0.756830	0.650897	-0.964901	0.123458	0.231783
701	694400466													3.643095	0.632390	2.091577	-0.223239	-0.647852	-0.728322	0.019502	-0.749996	0.661154	-0.974569	0.133392	0.180063
702	694417133													4.492432	1.025497	1.934181	-0.193642	-0.659662	-0.726188	-0.020375	-0.737335	0.675220	-0.980861	0.145547	0.129338
703	694433800													5.469185	1.898526	1.303681	-0.167801	-0.679594	-0.714139	-0.059610	-0.716090	0.695458	-0.984017	0.159268	0.079651
704	694450467													6.321343	2.380329	0.518964	-0.146995	-0.708138	-0.690603	-0.096248	-0.684635	0.722504	-0.984443	0.172674	0.032482
705	694467134													6.555497	2.170279	-0.033051	-0.132740	-0.742985	-0.656013	-0.128620	-0.643361	0.754681	-0.982770	0.184553	-0.010163
706	694483801													6.129387	1.415598	-0.667998	-0.124720	-0.778047	-0.615701	-0.156927	-0.597267	0.786541	-0.979703	0.194717	-0.047605
707	694500468													5.431437	0.745941	-1.499056	-0.120769	-0.809467	-0.574611	-0.179846	-0.551426	0.814607	-0.976253	0.201721	-0.078985
708	694517135													5.019246	0.734557	-1.986077	-0.119612	-0.834832	-0.537353	-0.194982	-0.510945	0.837208	-0.973486	0.204915	-0.101662
709	694533802													4.891785	0.600327	-1.970365	-0.119565	-0.853343	-0.507454	-0.202281	-0.479462	0.853931	-0.972001	0.204748	-0.115288
710	694550469													4.426672	0.368570	-1.872376	-0.120322	-0.865475	-0.486287	-0.203748	-0.457889	0.865346	-0.971602	0.203200	-0.121244
711	694567136													4.219694	0.415938	-2.169341	-0.120933	-0.871802	-0.474697	-0.200984	-0.446798	0.871766	-0.972101	0.200832	-0.121185
712	694583803													4.265011	0.569234	-2.521449	-0.122053	-0.873809	-0.470703	-0.193651	-0.444169	0.874765	-0.973449	0.197920	-0.115002
713	694600470													4.147045	1.145658	-2.333593	-0.124762	-0.873376	-0.470796	-0.182005	-0.446306	0.876176	-0.975351	0.195000	-0.103277
714	694617137													4.449986	2.240096	-1.904219	-0.129189	-0.872957	-0.470378	-0.166352	-0.448552	0.878139	-0.977567	0.191695	-0.087270
715	694633804													3.882037	2.630148	-1.341357	-0.136122	-0.874883	-0.464813	-0.146683	-0.446211	0.882825	-0.979773	0.188352	-0.067591
716	694650471													-2.029102	-1.838986	2.830566	-0.148003	-0.883182	-0.445067	-0.126325	-0.429455	0.894209	-0.980886	0.188568	-0.048008
717	694667138													-6.979357	0.041214	8.837896	-0.157445	-0.893597	-0.420352	-0.115161	-0.406143	0.906524	-0.980790	0.191136	-0.038962
718	694683805													-0.423236	1.860804	3.775739	-0.156344	-0.893292	-0.421410	-0.109540	-0.408342	0.906233	-0.981610	0.187846	-0.034009
719	694700472													5.609143	-2.493772	-0.033798	-0.163046	-0.888875	-0.428155	-0.097014	-0.417416	0.903522	-0.981837	0.188853	-0.018175
720	694717139													2.648308	-5.766779	-0.000193	-0.181573	-0.896566	-0.403980	-0.069650	-0.398052	0.914715	-0.980908	0.194225	0.009830
721	694733806													1.843630	-0.848396	1.055053	-0.198155	-0.907695	-0.369897	-0.042694	-0.369030	0.928437	-0.979240	0.199767	0.034372
722	694750473													1.402854	-1.496581	0.803334	-0.204132	-0.917219	-0.342109	-0.021299	-0.345224	0.938279	-0.978712	0.198820	0.050935
723	694767140													-0.182650	0.723194	0.250672	-0.207158	-0.922605	-0.325401	-0.002640	-0.332087	0.943245	-0.978304	0.196260	0.066359
724	694783807													-0.628159	0.769292	0.314024	-0.206007	-0.923709	-0.322992	0.010085	-0.332058	0.943205	-0.978499	0.191050	0.077722
725	694800474													-0.180843	-0.332313	-0.031919	-0.202303	-0.921020	-0.332861	0.018225	-0.343371	0.939023	-0.979153	0.183901	0.086251
726	694817141													0.853412	-1.230463	-0.070612	-0.198916	-0.916219	-0.347816	0.024961	-0.359530	0.932800	-0.979699	0.176867	0.094386
727	694833808													2.112631	-0.358948	0.434945	-0.196345	-0.912310	-0.359359	0.031223	-0.372124	0.927658	-0.980038	0.170920	0.101550
728	694850475													2.570494	0.533143	0.858362	-0.193722	-0.911330	-0.363248	0.038382	-0.377019	0.925410	-0.980305	0.165330	0.108015
729	694867142													2.200490	0.867433	0.331977	-0.190421	-0.914469	-0.357052	0.047511	-0.371865	0.927070	-0.980552	0.159570	0.114258
730	694883809													1.555128	1.028765	-0.513321	-0.186673	-0.920471	-0.343347	0.056394	-0.358954	0.931650	-0.980802	0.154552	0.118916
731	694900476													-0.044591	0.654017	-0.740600	-0.183651	-0.926513	-0.328400	0.064949	-0.344789	0.936430	-0.980843	0.150647	0.123497
732	694917143													-1.322844	0.419187	-0.227113	-0.180735	-0.930707	-0.317991	0.073494	-0.335192	0.939279	-0.980782	0.146390	0.128983
733	694933810													-1.563182	0.293480	0.171828	-0.177613	-0.932264	-0.315180	0.080959	-0.333028	0.939435	-0.980765	0.141339	0.134626
734	694950477													-0.473633	0.465931	0.363211	-0.174329	-0.932179	-0.317257	0.087458	-0.335575	0.937945	-0.980796	0.135764	0.140027
735	694967144													0.389242	0.329537	0.237164	-0.171232	-0.931810	-0.320014	0.093993	-0.338780	0.936159	-0.980737	0.130221	0.145594
736	694983811													1.020349	0.550997	-0.195001	-0.168399	-0.932226	-0.320306	0.100453	-0.339485	0.935232	-0.980587	0.125316	0.150814
737	695000478													0.204017	0.631276	-0.076221	-0.166541	-0.932925	-0.319240	0.107386	-0.338997	0.934639	-0.980169	0.121374	0.156640
738	695017145													-0.083768	0.694257	0.233039	-0.164950	-0.933156	-0.319391	0.113528	-0.339638	0.933679	-0.979746	0.117751	0.161963
739	695033812													0.461395	0.673074	0.402850	-0.163498	-0.932913	-0.320844	0.118630	-0.341452	0.932383	-0.979385	0.114381	0.166498
740	695050479													0.760778	0.497327	0.121692	-0.161866	-0.932684	-0.322334	0.123258	-0.343193	0.931142	-0.979085	0.110989	0.170512
741	695067146													0.318334	0.186559	0.062005	-0.160318	-0.932279	-0.324274	0.127409	-0.345320	0.929796	-0.978808	0.107748	0.174141
742	695083813													0.500939	0.177516	0.081808	-0.158771	-0.931811	-0.326375	0.130505	-0.347474	0.928563	-0.978652	0.104835	0.176775
743	695100480													1.005695	0.297895	0.141912	-0.157306	-0.931666	-0.327495	0.133211	-0.348612	0.927753	-0.978524	0.102315	0.178947
744	695117147													1.249402	0.512048	0.081181	-0.155769	-0.932244	-0.326585	0.135521	-0.347663	0.927774	-0.978453	0.100259	0.180493
745	695133814													1.072885	0.482957	-0.004249	-0.153769	-0.933531	-0.323844	0.137312	-0.344750	0.928597	-0.978519	0.098322	0.181197
746	695150481													1.094445	0.267731	-0.102858	-0.151221	-0.935302	-0.319910	0.138296	-0.340467	0.930030	-0.978778	0.096398	0.180835
747	695167148													0.789390	0.130872	-0.183976	-0.148511	-0.937367	-0.315099	0.138654	-0.335222	0.931880	-0.979142	0.094705	0.179754
748	695183815													0.169516	-0.056993	0.014931	-0.145565	-0.939158	-0.311117	0.138517	-0.330715	0.933510	-0.979604	0.092791	0.178230
749	695200482													0.010266	0.005258	0.071749	-0.142486	-0.940808	-0.307536	0.137861	-0.326541	0.935075	-0.980149	0.090838	0.176228
750	695217149													0.397748	0.061567	0.238379	-0.139538	-0.942417	-0.303940	0.136972	-0.322362	0.936654	-0.980698	0.089068	0.174066
751	695233816													0.818281	0.315839	-0.117632	-0.136547	-0.944781	-0.297898	0.136340	-0.315776	0.938987	-0.981207	0.087601	0.171929
752	695250483													0.591932	0.311584	-0.158795	-0.133780	-0.947536	-0.290308	0.135766	-0.307703	0.941746	-0.981667	0.086573	0.169808
753	695267150													0.616299	0.182969	-0.180744	-0.130528	-0.950603	-0.281633	0.134926	-0.298452	0.944839	-0.982221	0.085329	0.167217
754	695283817													0.095314	0.173182	-0.142219	-0.127446	-0.953873	-0.271815	0.134282	-0.288120	0.948132	-0.982714	0.084336	0.164808
755	695300484													-0.178500	0.471480	-0.127275	-0.124513	-0.956931	-0.262259	0.133372	-0.278059	0.951260	-0.983213	0.083466	0.162250
756	695317151													-0.150061	0.530500	-0.006895	-0.121613	-0.959528	-0.254002	0.132498	-0.269304	0.953897	-0.983694	0.082352	0.159887
757	695333818													-0.289157	0.379353	0.077401	-0.118620	-0.962080	-0.245624	0.132343	-0.260482	0.956365	-0.984081	0.080937	0.158223
758	695350485													-0.866781	0.365871	0.051045	-0.116467	-0.964391	-0.237458	0.132640	-0.252046	0.958582	-0.984298	0.080147	0.157272
759	695367152													-0.663431	1.058563	0.084502	-0.115084	-0.966578	-0.229091	0.133166	-0.243553	0.960702	-0.984389	0.080055	0.156745
760	695383819													-0.704341	1.424586	0.042891	-0.114762	-0.968386	-0.221493	0.134368	-0.236049	0.962406	-0.984264	0.080686	0.157209
761	695400486													-0.046543	0.981499	0.186328	-0.114984	-0.969504	-0.216428	0.135466	-0.231142	0.963443	-0.984087	0.081462	0.157913
762	695417153													0.118261	0.671789	-0.230442	-0.115793	-0.971268	-0.207919	0.136965	-0.222941	0.965162	-0.983785	0.083281	0.158844
763	695433820													0.029536	0.580815	0.262347	-0.117244	-0.972850	-0.199541	0.138248	-0.214959	0.966789	-0.983434	0.085764	0.159697
764	695450487													0.145989	0.177876	0.019837	-0.117877	-0.974185	-0.192530	0.139035	-0.208163	0.968162	-0.983247	0.087356	0.159983
765	695467154													0.396069	-0.142193	0.187576	-0.118249	-0.975345	-0.186332	0.139482	-0.202103	0.969381	-0.983139	0.088638	0.159942
766	695483821													0.445165	-0.224491	0.309848	-0.118340	-0.976490	-0.180174	0.139420	-0.195991	0.970644	-0.983137	0.089746	0.159336
767	695500488													0.350066	-0.331343	0.340567	-0.117726	-0.977604	-0.174444	0.138800	-0.190140	0.971896	-0.983298	0.090205	0.158076
768	695517155													0.044244	-0.482664	0.178511	-0.116693	-0.978607	-0.169443	0.137752	-0.184908	0.973054	-0.983569	0.090208	0.156383
769	695533822													-0.140056	-0.394843	0.175147	-0.115561	-0.979437	-0.165375	0.136416	-0.180562	0.974058	-0.983888	0.090004	0.154477
770	695550489													0.217727	0.077818	0.284708	-0.114393	-0.980306	-0.160982	0.134983	-0.175881	0.975113	-0.984223	0.089816	0.152444
771	695567156													0.219392	0.315210	0.150409	-0.113195	-0.981286	-0.155771	0.133644	-0.170391	0.976272	-0.984544	0.089691	0.150430
772	695583823													-0.192648	0.348127	-0.132773	-0.112237	-0.982250	-0.150291	0.132527	-0.164692	0.977401	-0.984804	0.089783	0.148659
773	695600490													-0.552160	0.506401	-0.140181	-0.111964	-0.983106	-0.144800	0.131727	-0.159114	0.978433	-0.984943	0.090476	0.147317
774	695617157													-0.405821	0.726764	-0.116140	-0.112442	-0.983802	-0.139608	0.131138	-0.153962	0.979336	-0.984967	0.091810	0.146325
775	695633824													-0.073741	0.752950	-0.165985	-0.113507	-0.984331	-0.134936	0.130812	-0.149438	0.980080	-0.984888	0.093594	0.145724
776	695650491													0.301796	0.397513	0.049274	-0.114683	-0.984745	-0.130866	0.130505	-0.145528	0.980709	-0.984793	0.095392	0.145203
777	695667158													0.364304	-0.121252	0.117545	-0.115483	-0.985286	-0.125995	0.130008	-0.140746	0.981473	-0.984765	0.096963	0.144349
778	695683825													-0.237358	0.036638	0.092308	-0.116468	-0.985737	-0.121480	0.128945	-0.136284	0.982242	-0.984789	0.098735	0.142979
779	695700492													-0.110141	0.230465	0.159378	-0.117446	-0.985818	-0.119870	0.126815	-0.134605	0.982751	-0.984949	0.100219	0.140825
780	695717159													0.579546	0.008302	0.061395	-0.118184	-0.985660	-0.120441	0.124042	-0.134995	0.983051	-0.985214	0.101242	0.138218
781	695733826													0.721637	-0.108492	0.071147	-0.118775	-0.985752	-0.119106	0.121035	-0.133434	0.983639	-0.985517	0.102416	0.135159
782	695750493													0.378931	0.226514	0.258017	-0.119033	-0.985995	-0.116813	0.117487	-0.130810	0.984421	-0.985915	0.103454	0.131412
783	695767160													0.202126	0.249079	0.151061	-0.118865	-0.986127	-0.115864	0.113155	-0.129384	0.985117	-0.986442	0.103986	0.126964
784	695783827													0.497220	0.164627	-0.019025	-0.118820	-0.986187	-0.115403	0.108291	-0.128404	0.985792	-0.986993	0.104634	0.122052
785	695800494													0.432831	0.272589	0.080723	-0.119098	-0.986224	-0.114797	0.102962	-0.127264	0.986510	-0.987530	0.105672	0.116700
786	695817161													-0.142356	0.401795	0.066956	-0.119612	-0.986218	-0.114314	0.097084	-0.126207	0.987242	-0.988063	0.106988	0.110842
787	695833828													0.317720	0.645372	-0.123158	-0.120225	-0.986153	-0.114230	0.090519	-0.125475	0.987959	-0.988611	0.108437	0.104351
788	695850495													0.441312	0.742970	-0.175581	-0.121350	-0.986064	-0.113807	0.083865	-0.124429	0.988678	-0.989061	0.110432	0.097796
789	695867162													0.403247	0.525761	-0.064527	-0.122959	-0.986017	-0.112477	0.076958	-0.122469	0.989484	-0.989423	0.113010	0.090941
790	695883829													0.113706	0.369182	-0.135800	-0.124899	-0.986019	-0.110306	0.069671	-0.119618	0.990372	-0.989720	0.116011	0.083638
791	695900496													-0.075272	0.436804	-0.106890	-0.127234	-0.985959	-0.108148	0.062193	-0.116750	0.991212	-0.989921	0.119390	0.076174
792	695917163													0.055838	0.408885	-0.089024	-0.129680	-0.985844	-0.106277	0.054465	-0.114102	0.991975	-0.990059	0.122851	0.068490
793	695933830													0.437444	0.217785	-0.025750	-0.132123	-0.985744	-0.104178	0.046612	-0.111161	0.992709	-0.990137	0.126303	0.060634
794	695950497													0.327215	0.171552	0.034976	-0.134871	-0.985753	-0.100503	0.038574	-0.106576	0.993556	-0.990112	0.130125	0.052398
795	695967164													0.302777	0.124958	0.172511	-0.137471	-0.985765	-0.096791	0.030011	-0.101820	0.994350	-0.990051	0.133790	0.043581
796	695983831													0.267730	0.084730	0.129502	-0.139989	-0.985748	-0.093290	0.020935	-0.097143	0.995050	-0.989932	0.137343	0.034236
797	696000498													0.295867	0.182257	0.174698	-0.142580	-0.985691	-0.089907	0.011247	-0.092442	0.995655	-0.989719	0.140949	0.024266
798	696017165													0.272357	0.268792	0.202409	-0.144985	-0.985599	-0.087022	0.000978	-0.088094	0.996112	-0.989433	0.144337	0.013736
799	696033832													0.088232	0.313123	0.120747	-0.147154	-0.985429	-0.085297	-0.009719	-0.084791	0.996351	-0.989066	0.147446	0.002900
800	696050499													0.014118	0.542417	0.101752	-0.149543	-0.985153	-0.084320	-0.020888	-0.082112	0.996404	-0.988535	0.150766	-0.008299
801	696067166													-0.115382	1.008625	-0.052877	-0.152445	-0.984782	-0.083460	-0.031998	-0.079485	0.996322	-0.987794	0.154555	-0.019394
802	696083833													-0.466362	1.535792	-0.306173	-0.156813	-0.984207	-0.082129	-0.042285	-0.076391	0.996181	-0.986723	0.159687	-0.029638
803	696100500													-1.117356	1.980504	-0.293636	-0.164174	-0.983165	-0.080209	-0.050908	-0.072760	0.996049	-0.985117	0.167609	-0.038106
804	696117167													-1.428847	2.534743	-0.226714	-0.174684	-0.981445	-0.079068	-0.057075	-0.070075	0.995908	-0.982969	0.178481	-0.043775
805	696133834													-1.311124	2.819293	-0.388850	-0.188824	-0.978808	-0.079253	-0.060378	-0.068980	0.995789	-0.980153	0.192814	-0.046073
806	696150501													-0.834143	2.831439	-0.269917	-0.207527	-0.974963	-0.079877	-0.060086	-0.068796	0.995820	-0.976382	0.211459	-0.044305
807	696167168													0.585154	2.200264	0.649897	-0.229548	-0.969754	-0.082976	-0.057690	-0.071546	0.995768	-0.971586	0.233363	-0.039521
808	696183835													2.868098	2.257976	1.341132	-0.252603	-0.964205	-0.080629	-0.053546	-0.069273	0.996160	-0.966087	0.255951	-0.034130
809	696200502													5.490963	2.227731	1.473070	-0.276072	-0.958938	-0.064980	-0.046487	-0.054206	0.997447	-0.960012	0.278388	-0.029614
810	696217169													7.370634	2.786611	1.439325	-0.299188	-0.953804	-0.027300	-0.033501	-0.018093	0.999275	-0.953606	0.299886	-0.026540
811	696233836													7.720194	2.534461	1.289664	-0.320847	-0.946579	0.032335	-0.013253	0.038624	0.999166	-0.947038	0.320151	-0.024938
812	696250503													6.630315	1.709968	0.605641	-0.339786	-0.934289	0.107934	0.012836	0.110145	0.993833	-0.940415	0.339076	-0.025433
813	696267170													3.892745	1.318297	0.129986	-0.355084	-0.914928	0.191891	0.042952	0.189083	0.981021	-0.933847	0.356587	-0.027843
814	696283837													2.199026	2.401685	0.366179	-0.365036	-0.889629	0.274423	0.074641	0.265849	0.961121	-0.927996	0.371327	-0.030642
815	696300504													1.425145	3.140548	0.437065	-0.368606	-0.860930	0.350614	0.105938	0.335810	0.935953	-0.923530	0.382141	-0.032577
816	696317171													0.860415	3.413531	0.375561	-0.365890	-0.833830	0.413341	0.132814	0.392809	0.909979	-0.921132	0.387850	-0.032981
817	696333838													0.152835	3.458893	-0.322288	-0.358811	-0.812146	0.460080	0.152673	0.435200	0.887295	-0.920840	0.388613	-0.032162
818	696350505													-0.225980	3.419514	-0.737452	-0.349983	-0.796153	0.493612	0.165993	0.465890	0.869133	-0.921932	0.386118	-0.030898
819	696367172													-0.123530	3.347162	-0.795248	-0.340209	-0.786153	0.515966	0.173536	0.486783	0.856112	-0.924199	0.380795	-0.029182
820	696383839													0.532189	2.922686	-0.657218	-0.329248	-0.782280	0.528804	0.175823	0.499443	0.848318	-0.927730	0.372283	-0.026898
821	696400506													1.238164	2.036647	-0.553417	-0.317108	-0.782709	0.535545	0.174090	0.507053	0.844150	-0.932274	0.360920	-0.024528
822	696417173													1.732855	1.131441	-0.462471	-0.303646	-0.784172	0.541178	0.170424	0.514135	0.840608	-0.937419	0.347477	-0.022473
823	696433840													2.099884	0.482425	-0.173101	-0.288418	-0.783649	0.550191	0.166148	0.524933	0.834770	-0.942979	0.332175	-0.021198
824	696450507													2.221095	0.152931	0.170426	-0.270691	-0.779525	0.564860	0.161743	0.541597	0.824931	-0.948981	0.314664	-0.020523
825	696467174													2.033569	0.011747	0.357347	-0.249978	-0.771231	0.585418	0.157500	0.564172	0.810496	-0.955356	0.294809	-0.019561
826	696483841													1.731506	-0.195361	0.366041	-0.226785	-0.759149	0.610133	0.153010	0.590905	0.792098	-0.961851	0.272992	-0.017851
827	696500508													1.551663	-0.477808	0.490212	-0.201952	-0.743117	0.637960	0.148171	0.620702	0.769919	-0.968122	0.250013	-0.015244
828	696517175													1.392399	-0.811517	0.719552	-0.175600	-0.722345	0.668866	0.142692	0.653573	0.743291	-0.974065	0.225964	-0.011695
829	696533842													1.256245	-1.133256	0.807065	-0.147589	-0.696310	0.702403	0.136091	0.689128	0.711746	-0.979641	0.200636	-0.006946
830	696550509													0.862343	-1.384814	0.691586	-0.118218	-0.665418	0.737050	0.128082	0.725836	0.675838	-0.984693	0.174299	-0.000578
831	696567176													0.150707	-1.353887	0.557528	-0.088565	-0.630475	0.771140	0.118476	0.762019	0.636624	-0.988999	0.147744	0.007208
832	696583843													-0.484614	-1.161786	0.526770	-0.059525	-0.593872	0.802355	0.106758	0.795383	0.596632	-0.992502	0.121173	0.016056
833	696600510													-0.905924	-1.223580	0.476741	-0.031400	-0.557200	0.829784	0.093230	0.824941	0.557476	-0.995149	0.094865	0.026045
834	696617177													-1.172579	-1.308252	0.312071	-0.004348	-0.520968	0.853565	0.078360	0.850771	0.519662	-0.996916	0.069145	0.037124
835	696633844													-1.444205	-1.341540	0.131057	0.021391	-0.485803	0.873806	0.062402	0.872951	0.483800	-0.997822	0.044178	0.048988
836	696650511													-1.528798	-1.526983	-0.042103	0.045796	-0.452060	0.890811	0.045578	0.891764	0.450200	-0.997911	0.019984	0.061443
837	696667178													-1.552304	-2.175562	-0.388124	0.069144	-0.419675	0.905037	0.028200	0.907668	0.418740	-0.997208	-0.003431	0.074595
838	696683845													-1.704135	-2.770764	-0.753339	0.090750	-0.385898	0.918067	0.011075	0.922205	0.386542	-0.995812	-0.024911	0.087964
839	696700512													-1.814510	-2.867326	-0.754285	0.109725	-0.348311	0.930935	-0.005657	0.936356	0.351007	-0.993946	-0.043780	0.100771
840	696717179													-1.997397	-2.577331	-0.723038	0.126470	-0.306991	0.943272	-0.022111	0.949799	0.312080	-0.991724	-0.060325	0.113334
841	696733846													-2.152811	-2.479697	-0.994325	0.141333	-0.263663	0.954205	-0.037768	0.961742	0.271340	-0.989241	-0.074388	0.125968
842	696750513													-2.512712	-2.635277	-1.496061	0.154197	-0.221316	0.962934	-0.051382	0.971475	0.231507	-0.986703	-0.085175	0.138428
843	696767180													-2.687425	-2.660825	-1.836177	0.163948	-0.179922	0.969922	-0.063080	0.979302	0.192325	-0.984450	-0.092714	0.149205
844	696783847													-3.241235	-2.332030	-1.930891	0.169694	-0.136990	0.975929	-0.073606	0.985764	0.151169	-0.982744	-0.097486	0.157195
845	696800514													-3.758056	-2.138727	-1.876226	0.171945	-0.094660	0.980548	-0.081555	0.990588	0.109931	-0.981725	-0.098870	0.162607
846	696817181													-3.908968	-2.092174	-2.165247	0.171180	-0.057788	0.983544	-0.084494	0.993739	0.073093	-0.981610	-0.095616	0.165226
847	696833848													-4.139186	-2.297656	-2.748227	0.166938	-0.025662	0.985633	-0.082016	0.995835	0.039819	-0.982550	-0.087485	0.164138
848	696850515													-4.390822	-2.426721	-2.673565	0.158818	0.004934	0.987295	-0.074725	0.997179	0.007038	-0.984476	-0.074894	0.158739
849	696867182													-4.805850	-2.066406	-1.837366	0.147266	0.034880	0.988482	-0.062872	0.997687	-0.025837	-0.987097	-0.058343	0.149119
