// Start Time: Unknown
// Update Rate: 100.0Hz
//Filter Profile: human (46.1)
// Option Flags: AHS Disabled ICC Disabled
// Firmware Version: 4.0.2
PacketCounter	SampleTimeFine	Year	Month	Day	Second	UTC_Nano	UTC_Year	UTC_Month	UTC_Day	UTC_Hour	UTC_Minute	UTC_Second	UTC_Valid	Acc_X	Acc_Y	Acc_Z	Mat[1][1]	Mat[1][2]	Mat[1][3]	Mat[2][1]	Mat[2][2]	Mat[2][3]	Mat[3][1]	Mat[3][2]	Mat[3][3]
1	1040424495													-1.000168	-15.187057	-7.921004	0.224061	-0.653273	-0.723209	0.335326	-0.645089	0.686598	-0.915070	-0.396350	0.074520
2	1040441162													0.542251	-14.041570	-6.246111	0.205966	-0.616687	-0.759786	0.336059	-0.684636	0.646791	-0.919044	-0.388550	0.066232
3	1040457829													1.569808	-11.651844	-3.336946	0.180263	-0.580317	-0.794189	0.327470	-0.725949	0.604782	-0.927507	-0.369093	0.059174
4	1040474496													2.186335	-8.804549	-1.242796	0.152762	-0.548485	-0.822088	0.308973	-0.763645	0.566906	-0.938722	-0.340604	0.052811
5	1040491163													6.566552	6.151934	7.821045	0.127926	-0.502828	-0.854868	0.291385	-0.804855	0.517014	-0.948014	-0.315235	0.043555
6	1040507830													-0.505231	31.564070	15.972082	0.147148	-0.503806	-0.851192	0.284312	-0.802699	0.524253	-0.947372	-0.319147	0.025123
7	1040524497													14.929790	-2.294699	-8.650092	0.135557	-0.559930	-0.817375	0.261258	-0.775590	0.574634	-0.955703	-0.291442	0.041150
8	1040541164													-1.220146	-17.105091	1.226412	0.117957	-0.603783	-0.788373	0.231780	-0.755246	0.613092	-0.965590	-0.255047	0.050858
9	1040557831													-10.000983	-6.801727	9.633005	0.106637	-0.594817	-0.796757	0.195882	-0.773054	0.603339	-0.974812	-0.220409	0.034078
10	1040574498													1.003959	-7.324301	-2.286300	0.098850	-0.593905	-0.798439	0.162723	-0.781921	0.601765	-0.981708	-0.189409	0.019349
11	1040591165													2.745845	-2.846633	-1.105517	0.083085	-0.568777	-0.818285	0.139367	-0.806423	0.574682	-0.986749	-0.161789	0.012267
12	1040607832													1.933075	-0.451850	-0.182939	0.073138	-0.556120	-0.827877	0.116413	-0.819666	0.560889	-0.990504	-0.137398	0.004791
13	1040624499													1.191754	0.144870	-0.073215	0.064930	-0.549603	-0.832899	0.092880	-0.827708	0.553419	-0.993558	-0.113293	-0.002696
14	1040641166													1.547613	0.688914	-0.229728	0.057295	-0.550833	-0.832646	0.069340	-0.829807	0.553726	-0.995946	-0.089462	-0.009349
15	1040657833													1.017617	-0.640310	-0.028234	0.050475	-0.552480	-0.831997	0.046355	-0.830865	0.554540	-0.997649	-0.066558	-0.016328
16	1040674500													0.428455	-1.497692	0.017330	0.045659	-0.549604	-0.834176	0.025751	-0.834122	0.550978	-0.998625	-0.046638	-0.023932
17	1040691167													0.187584	-0.981056	0.069884	0.039964	-0.548307	-0.835322	0.008182	-0.835782	0.549001	-0.999168	-0.028775	-0.028915
18	1040707834													0.551726	-0.994001	0.339649	0.032777	-0.547874	-0.835918	-0.006914	-0.836472	0.547966	-0.999439	-0.012181	-0.031205
19	1040724501													0.344713	-0.898697	0.120611	0.025687	-0.546006	-0.837388	-0.019847	-0.837778	0.545651	-0.999473	0.002604	-0.032356
20	1040741168													0.649969	-1.947687	-0.023616	0.020023	-0.541568	-0.840418	-0.029908	-0.840535	0.540931	-0.999352	0.014304	-0.033028
21	1040757835													0.663215	-1.051092	0.279831	0.016129	-0.535073	-0.844652	-0.037302	-0.844495	0.534262	-0.999174	0.022890	-0.033580
22	1040774502													1.088691	-0.753230	0.326365	0.012820	-0.529128	-0.848445	-0.043129	-0.848018	0.528210	-0.998987	0.029820	-0.033693
23	1040791169													1.522038	-0.111620	0.559498	0.009917	-0.524706	-0.851226	-0.048168	-0.850530	0.523716	-0.998790	0.035809	-0.033709
24	1040807836													1.606527	0.270261	0.715405	0.007316	-0.522020	-0.852902	-0.052911	-0.851932	0.520972	-0.998572	0.041316	-0.033853
25	1040824503													1.481306	0.188883	0.008347	0.004934	-0.520658	-0.853751	-0.057173	-0.852512	0.519572	-0.998352	0.046248	-0.033974
26	1040841170													0.864451	0.263449	-0.413818	0.002833	-0.519001	-0.854769	-0.061097	-0.853265	0.517886	-0.998128	0.050757	-0.034127
27	1040857837													0.533109	0.456718	-0.489052	0.000657	-0.517535	-0.855662	-0.064993	-0.853875	0.516405	-0.997886	0.055272	-0.034197
28	1040874504													0.608261	0.720216	0.039820	-0.001437	-0.515379	-0.856961	-0.069122	-0.854861	0.514232	-0.997607	0.059974	-0.034395
29	1040891171													0.455523	1.237695	-0.028032	-0.003932	-0.513340	-0.858177	-0.073934	-0.855685	0.512188	-0.997255	0.065462	-0.034588
30	1040907838													0.444565	1.436489	-0.339436	-0.007491	-0.511943	-0.858986	-0.079859	-0.855961	0.510836	-0.996778	0.072424	-0.034472
31	1040924505													0.707637	1.455354	-0.634512	-0.012003	-0.512269	-0.858741	-0.087196	-0.854995	0.511254	-0.996119	0.081015	-0.034405
32	1040941172													0.753427	1.068069	-0.283809	-0.017454	-0.513371	-0.857990	-0.096112	-0.853285	0.512511	-0.995217	0.091409	-0.034448
33	1040957839													0.687724	1.064716	-0.096736	-0.023703	-0.514877	-0.856936	-0.106222	-0.851028	0.514265	-0.994060	0.103215	-0.034520
34	1040974506													0.619325	0.834860	-0.089760	-0.030848	-0.516593	-0.855675	-0.117056	-0.848325	0.516375	-0.992646	0.116091	-0.034301
35	1040991173													0.616692	0.663001	0.064322	-0.038589	-0.517752	-0.854660	-0.128402	-0.845637	0.518084	-0.990971	0.129732	-0.033848
36	1041007840													0.964552	0.631746	0.204238	-0.046939	-0.518809	-0.853601	-0.140145	-0.842670	0.519872	-0.989018	0.144030	-0.033154
37	1041024507													1.043495	0.541941	0.275653	-0.056103	-0.519744	-0.852478	-0.152327	-0.839371	0.521778	-0.986736	0.159129	-0.032080
38	1041041174													1.098195	0.624782	0.167315	-0.065845	-0.520648	-0.851229	-0.165008	-0.835653	0.523885	-0.984092	0.174955	-0.030888
39	1041057841													0.963257	0.624015	0.149976	-0.076371	-0.520814	-0.850247	-0.178574	-0.831806	0.525557	-0.980958	0.191969	-0.029477
40	1041074508													0.855497	0.785012	0.117300	-0.087843	-0.520118	-0.849565	-0.193180	-0.827776	0.526753	-0.977223	0.210390	-0.027762
41	1041091175													0.692908	0.738381	0.193602	-0.100332	-0.518237	-0.849332	-0.208785	-0.823666	0.527240	-0.972801	0.230227	-0.025560
42	1041107842													0.812365	0.767589	0.492092	-0.113857	-0.515222	-0.849460	-0.225158	-0.819392	0.527163	-0.967647	0.251284	-0.022713
43	1041124509													0.946843	1.151955	0.744091	-0.128700	-0.511456	-0.849617	-0.242205	-0.814585	0.527056	-0.961651	0.273613	-0.019040
44	1041141176													0.580253	1.759694	0.860620	-0.144965	-0.507769	-0.849209	-0.260011	-0.808560	0.527849	-0.954662	0.297323	-0.014813
45	1041157843													0.721789	1.632962	0.754889	-0.163180	-0.504359	-0.847935	-0.278730	-0.800876	0.530008	-0.946405	0.322832	-0.009893
46	1041174510													0.698212	1.813338	0.887751	-0.183079	-0.500168	-0.846354	-0.298512	-0.791974	0.532604	-0.936682	0.350156	-0.004313
47	1041191177													1.141981	2.081173	1.959857	-0.204506	-0.494680	-0.844671	-0.319284	-0.782004	0.535283	-0.925330	0.379158	0.001981
48	1041207844													0.817066	4.196163	4.344679	-0.227810	-0.485582	-0.843986	-0.341738	-0.771767	0.536274	-0.911766	0.410591	0.009874
49	1041224511													1.884825	5.277220	2.287176	-0.251667	-0.479348	-0.840767	-0.364404	-0.757863	0.541159	-0.896590	0.442570	0.016053
50	1041241178													2.420470	5.250299	2.133405	-0.278853	-0.475454	-0.834377	-0.388396	-0.738775	0.550781	-0.878288	0.477655	0.021345
51	1041257845													2.664648	5.276024	3.325549	-0.307073	-0.471182	-0.826858	-0.413402	-0.716540	0.561845	-0.857208	0.514352	0.025242
52	1041274512													2.084133	8.145345	4.181500	-0.334835	-0.464746	-0.819693	-0.439823	-0.692244	0.572148	-0.833331	0.552095	0.027382
53	1041291179													2.205062	11.073184	1.851784	-0.361613	-0.458831	-0.811610	-0.465450	-0.665432	0.583572	-0.807832	0.588791	0.027066
54	1041307846													2.252322	14.849582	-1.175709	-0.390297	-0.454824	-0.800502	-0.488945	-0.634327	0.598801	-0.780129	0.625112	0.025192
55	1041324513													1.756802	12.948280	-3.121158	-0.422224	-0.453196	-0.785073	-0.507199	-0.599696	0.618963	-0.751316	0.659529	0.023346
56	1041341180													-0.583307	7.883044	-1.811730	-0.461319	-0.451876	-0.763540	-0.518358	-0.561164	0.645290	-0.720062	0.693472	0.024642
57	1041357847													-3.901708	3.764334	5.073508	-0.494402	-0.441291	-0.748885	-0.534992	-0.524550	0.662292	-0.685091	0.728086	0.023251
58	1041374514													-4.659316	6.307099	5.045339	-0.507756	-0.423962	-0.749959	-0.559406	-0.499780	0.661275	-0.655171	0.755298	0.016600
59	1041391181													-0.470061	5.637732	0.698294	-0.509572	-0.404144	-0.759608	-0.583595	-0.486379	0.650271	-0.632261	0.774663	0.011989
60	1041407848													-0.443636	8.417867	-3.166379	-0.493198	-0.382718	-0.781206	-0.610343	-0.487659	0.624235	-0.619868	0.784675	0.006923
61	1041424515													0.039042	8.590962	-6.370538	-0.476062	-0.371369	-0.797151	-0.628254	-0.490660	0.603780	-0.615356	0.788249	0.000271
62	1041441182													0.477208	6.654445	-7.447310	-0.464094	-0.367846	-0.805796	-0.636505	-0.494157	0.592174	-0.616019	0.787717	-0.004800
63	1041457849													0.219229	4.932379	-7.086224	-0.455382	-0.371027	-0.809300	-0.636461	-0.499955	0.587335	-0.622531	0.782550	-0.008474
64	1041474516													-0.068960	4.026551	-6.725221	-0.444576	-0.380523	-0.810897	-0.630004	-0.510696	0.585051	-0.636748	0.770968	-0.012688
65	1041491183													-0.025222	3.748929	-6.488864	-0.429909	-0.395188	-0.811791	-0.617251	-0.527541	0.583697	-0.658923	0.752016	-0.017136
66	1041507850													0.390125	4.036538	-5.950892	-0.411915	-0.413631	-0.811933	-0.597759	-0.549864	0.583381	-0.687758	0.725644	-0.020754
67	1041524517													0.601140	3.985220	-5.161540	-0.391184	-0.435202	-0.810910	-0.571368	-0.575899	0.584704	-0.721466	0.692055	-0.023378
68	1041541184													0.797716	3.848964	-4.571348	-0.366736	-0.459117	-0.809146	-0.538213	-0.604719	0.587062	-0.758836	0.650789	-0.025331
69	1041557851													1.221586	4.133161	-4.500262	-0.337750	-0.484890	-0.806725	-0.498109	-0.635156	0.590309	-0.798631	0.601214	-0.027004
70	1041574518													1.782563	4.245859	-3.715667	-0.306772	-0.514284	-0.800877	-0.449242	-0.663581	0.598199	-0.839091	0.543298	-0.027470
71	1041591185													2.205874	4.103127	-2.082952	-0.274272	-0.547255	-0.790751	-0.392045	-0.687217	0.611583	-0.878109	0.477750	-0.026064
72	1041607852													2.667927	3.454923	0.097158	-0.237941	-0.582643	-0.777117	-0.328458	-0.704690	0.628909	-0.914057	0.404894	-0.023699
73	1041624519													3.145694	2.710624	2.179747	-0.195884	-0.618062	-0.761334	-0.260161	-0.715799	0.648033	-0.945487	0.325009	-0.020582
74	1041641186													3.437052	1.652422	3.968720	-0.148561	-0.651591	-0.743881	-0.188441	-0.719792	0.668124	-0.970783	0.239435	-0.015853
75	1041657853													3.247720	-0.160819	5.531535	-0.097584	-0.682204	-0.724621	-0.114593	-0.715551	0.689097	-0.988608	0.150281	-0.008350
76	1041674520													2.921102	-2.560931	7.401087	-0.042626	-0.706603	-0.706325	-0.040527	-0.705163	0.707886	-0.998269	0.058800	0.001422
77	1041691187													3.214042	-4.977104	8.785078	0.014427	-0.724233	-0.689404	0.032758	-0.688764	0.724246	-0.999359	-0.033033	0.013788
78	1041707854													3.264233	-8.750010	8.955706	0.069888	-0.737193	-0.672058	0.102769	-0.664800	0.739919	-0.992247	-0.120778	0.029299
79	1041724521													0.676590	-14.511069	7.002161	0.122056	-0.743015	-0.658051	0.165792	-0.638429	0.751612	-0.978578	-0.200838	0.045262
80	1041741188													-1.332186	-17.440868	3.306057	0.168090	-0.740672	-0.650500	0.219815	-0.615112	0.757178	-0.960951	-0.270264	0.059417
81	1041757855													-2.778544	-19.907148	-1.297366	0.201451	-0.731369	-0.651549	0.264117	-0.599988	0.755153	-0.943218	-0.324211	0.072299
82	1041774522													-5.826326	-21.080624	-7.027585	0.222575	-0.717390	-0.660160	0.292819	-0.596688	0.747141	-0.929902	-0.359602	0.077258
83	1041791189													-4.081273	-21.543633	-9.780949	0.227079	-0.702271	-0.674722	0.301826	-0.607959	0.734362	-0.925925	-0.370407	0.073909
84	1041807856													-2.465187	-20.930410	-8.559404	0.214605	-0.684768	-0.696447	0.294212	-0.634616	0.714634	-0.931334	-0.358267	0.065275
85	1041824523													-1.387479	-18.334360	-6.154833	0.189261	-0.662423	-0.724828	0.273271	-0.673474	0.686845	-0.943135	-0.328067	0.053558
86	1041841190													5.498806	-9.455709	0.305872	0.156632	-0.625141	-0.764634	0.247441	-0.724661	0.643148	-0.956159	-0.289940	0.041180
87	1041857857													5.148002	43.715767	28.794159	0.167111	-0.558902	-0.812221	0.260135	-0.769620	0.583109	-0.951002	-0.308730	0.016778
88	1041874524													15.825472	0.942739	-10.587422	0.150918	-0.587714	-0.794868	0.240771	-0.758010	0.606176	-0.958777	-0.282864	0.027107
89	1041891191													-1.007182	-25.764738	-2.354892	0.116455	-0.626160	-0.770949	0.210003	-0.743157	0.635309	-0.970741	-0.235886	0.044951
90	1041907858													-8.080540	-4.230953	14.924841	0.097664	-0.587011	-0.803666	0.171824	-0.785455	0.594590	-0.980275	-0.196159	0.024152
91	1041924525													4.456228	-6.758132	-3.169429	0.093387	-0.585982	-0.804925	0.140272	-0.792650	0.593320	-0.985699	-0.168317	0.008174
92	1041941192													3.095377	-1.890364	0.364176	0.077482	-0.558755	-0.825705	0.112073	-0.818064	0.564102	-0.990675	-0.136247	-0.000764
93	1041957859													0.854917	-0.002496	-0.764083	0.071348	-0.552031	-0.830765	0.086066	-0.826374	0.556505	-0.993731	-0.111206	-0.011449
94	1041974526													0.418173	-0.416940	-0.269911	0.063574	-0.551960	-0.831443	0.061694	-0.829362	0.555296	-0.996068	-0.086598	-0.018673
95	1041991193													1.192943	-0.148113	-0.835411	0.054596	-0.562342	-0.825101	0.039210	-0.824488	0.564519	-0.997738	-0.063173	-0.022965
96	1042007860													0.765624	-1.925461	0.091316	0.045366	-0.571347	-0.819454	0.019267	-0.819645	0.572547	-0.998785	-0.041763	-0.026176
97	1042024527													0.551076	-2.453733	-0.051937	0.039437	-0.572181	-0.819179	0.002428	-0.819759	0.572703	-0.999219	-0.024575	-0.030940
98	1042041194													0.661716	-1.504739	0.801803	0.034912	-0.568721	-0.821789	-0.011549	-0.822465	0.568698	-0.999324	-0.010364	-0.035282
99	1042057861													0.796938	-0.650038	0.766062	0.030141	-0.565194	-0.824407	-0.023589	-0.824955	0.564707	-0.999267	0.002426	-0.038197
100	1042074528													0.769969	-0.522142	-0.159921	0.025139	-0.562465	-0.826439	-0.034261	-0.826699	0.561600	-0.999097	0.014196	-0.040053
101	1042091195													0.629265	-0.890841	-0.335379	0.021008	-0.559072	-0.828853	-0.043130	-0.828771	0.557924	-0.998849	0.024027	-0.041523
102	1042107862													0.478093	-0.596027	0.028700	0.017612	-0.554981	-0.831677	-0.050154	-0.831249	0.553633	-0.998586	0.031961	-0.042475
103	1042124529													0.721997	-0.136085	0.244059	0.014206	-0.550665	-0.834605	-0.055875	-0.833822	0.549198	-0.998337	0.038832	-0.042614
104	1042141196													0.834722	0.499481	0.080367	0.010655	-0.547066	-0.837022	-0.061172	-0.835858	0.545527	-0.998070	0.045389	-0.042371
105	1042157863													1.057197	0.415278	0.095004	0.007017	-0.545385	-0.838156	-0.066458	-0.836578	0.543802	-0.997765	0.051886	-0.042116
106	1042174530													1.324183	0.129394	0.220354	0.003730	-0.545229	-0.838279	-0.071874	-0.836263	0.543598	-0.997407	0.058223	-0.042307
107	1042191197													1.272265	-0.019861	0.202908	0.001037	-0.545333	-0.838219	-0.077285	-0.835756	0.543635	-0.997009	0.064218	-0.043012
108	1042207864													1.104354	0.043116	0.124525	-0.001080	-0.545164	-0.838329	-0.082563	-0.835419	0.543378	-0.996585	0.069802	-0.044109
109	1042224531													1.100888	0.088966	0.085354	-0.002741	-0.544914	-0.838487	-0.087775	-0.835123	0.543015	-0.996137	0.075086	-0.045541
110	1042241198													1.189023	0.248232	0.193951	-0.003730	-0.544043	-0.839049	-0.093285	-0.835207	0.541967	-0.995632	0.080292	-0.047636
111	1042257865													1.085638	1.047868	-0.067801	-0.004473	-0.543465	-0.839420	-0.099542	-0.835017	0.541145	-0.995023	0.085978	-0.050363
112	1042274532													0.887086	1.356326	-0.280193	-0.006151	-0.544059	-0.839024	-0.106940	-0.833871	0.541501	-0.994246	0.093056	-0.053052
113	1042291199													0.566964	1.573237	-0.439142	-0.008783	-0.545465	-0.838088	-0.115763	-0.831930	0.542670	-0.993238	0.101785	-0.055838
114	1042307866													0.603724	1.207070	-0.499994	-0.012544	-0.547065	-0.836996	-0.126091	-0.829515	0.544065	-0.991939	0.112362	-0.058574
115	1042324533													0.491557	1.163788	-0.452862	-0.017421	-0.547886	-0.836371	-0.138140	-0.827157	0.544728	-0.990260	0.125026	-0.061275
116	1042341200													0.551277	1.129006	-0.407848	-0.023695	-0.547823	-0.836258	-0.151953	-0.824801	0.544623	-0.988104	0.139977	-0.063700
117	1042357867													0.881053	0.925522	-0.018579	-0.031422	-0.546792	-0.836679	-0.167396	-0.822390	0.543740	-0.985389	0.157142	-0.065689
118	1042374534													0.613769	1.631457	0.491982	-0.040699	-0.545195	-0.837321	-0.184313	-0.819538	0.542574	-0.982025	0.176411	-0.067132
119	1042391201													0.488573	2.043658	0.091454	-0.052014	-0.544785	-0.836961	-0.202627	-0.814905	0.543021	-0.977874	0.197836	-0.068001
120	1042407868													0.461007	2.013885	-0.288963	-0.065998	-0.545961	-0.835207	-0.222638	-0.807873	0.545686	-0.972665	0.221963	-0.068234
121	1042424535													0.443023	1.791066	0.098374	-0.082628	-0.547819	-0.832507	-0.244312	-0.798738	0.549846	-0.966170	0.248823	-0.067841
122	1042441202													0.497715	1.605743	0.820964	-0.101484	-0.549294	-0.829444	-0.267257	-0.788046	0.554578	-0.958266	0.277956	-0.066829
123	1042457869													0.300451	2.173064	1.778551	-0.121427	-0.550169	-0.826178	-0.291126	-0.775992	0.559538	-0.948947	0.308465	-0.065942
124	1042474536													1.364834	2.016186	1.970012	-0.142965	-0.551823	-0.821615	-0.315607	-0.761386	0.566289	-0.938058	0.340268	-0.065308
125	1042491203													2.483725	1.216942	3.933232	-0.167308	-0.549422	-0.818623	-0.340792	-0.746915	0.570945	-0.925132	0.374504	-0.062274
126	1042507870													2.811904	4.871286	4.429735	-0.191415	-0.545118	-0.816215	-0.367854	-0.731135	0.574565	-0.909969	0.410228	-0.060574
127	1042524537													4.100439	4.411218	2.997463	-0.216245	-0.540858	-0.812841	-0.396022	-0.712386	0.579373	-0.892415	0.447189	-0.060141
128	1042541204													4.963666	4.935055	3.124725	-0.243667	-0.535473	-0.808638	-0.426462	-0.689683	0.585207	-0.871066	0.487449	-0.060306
129	1042557871													4.388852	7.433964	5.171210	-0.270512	-0.525297	-0.806776	-0.459445	-0.665989	0.587681	-0.846010	0.529644	-0.061187
130	1042574538													4.308877	11.339739	3.338822	-0.295078	-0.514838	-0.804904	-0.493376	-0.639314	0.589794	-0.818235	0.571156	-0.065361
131	1042591205													3.255265	15.315812	-0.696929	-0.321234	-0.508023	-0.799201	-0.525324	-0.606583	0.596734	-0.787936	0.611530	-0.072022
132	1042607872													2.957332	15.004268	-3.625589	-0.351959	-0.507297	-0.786622	-0.551150	-0.566937	0.612222	-0.756544	0.649024	-0.080059
133	1042624539													1.186645	10.565098	-4.146699	-0.389824	-0.512257	-0.765265	-0.567569	-0.520762	0.637709	-0.725191	0.682935	-0.087736
134	1042641206													-1.842422	4.857792	0.958299	-0.430366	-0.515517	-0.740964	-0.579588	-0.471485	0.664665	-0.692000	0.715503	-0.095876
135	1042657873													-2.504774	5.231413	3.446107	-0.454736	-0.510011	-0.730140	-0.598647	-0.431953	0.674566	-0.659422	0.743845	-0.108892
136	1042674540													1.237868	8.095532	-0.986918	-0.468154	-0.505320	-0.724903	-0.613617	-0.404400	0.678185	-0.635851	0.762307	-0.120751
137	1042691207													2.348005	9.272687	-5.195636	-0.473694	-0.506061	-0.720774	-0.621756	-0.387459	0.680657	-0.623725	0.770570	-0.131109
138	1042707874													2.909191	7.595231	-6.286765	-0.483702	-0.513915	-0.708465	-0.619927	-0.370237	0.691820	-0.617837	0.773832	-0.139506
139	1042724541													2.610311	5.274795	-5.716656	-0.494289	-0.524297	-0.693391	-0.611986	-0.356611	0.705905	-0.617375	0.773267	-0.144594
140	1042741208													1.385703	4.018443	-5.009276	-0.498743	-0.537328	-0.680098	-0.601191	-0.350763	0.718007	-0.624359	0.766970	-0.148096
141	1042757875													0.543815	3.187493	-4.881004	-0.492762	-0.553599	-0.671353	-0.589320	-0.355336	0.725561	-0.640225	0.753170	-0.151151
142	1042774542													0.344115	3.009788	-5.428811	-0.475947	-0.573035	-0.667162	-0.575252	-0.370976	0.729015	-0.665252	0.730758	-0.153075
143	1042791209													0.687465	3.039029	-5.583355	-0.451016	-0.594808	-0.665423	-0.556495	-0.395474	0.730693	-0.697780	0.699859	-0.152643
144	1042807876													1.111860	3.105802	-5.003925	-0.419415	-0.617266	-0.665638	-0.531919	-0.427083	0.731206	-0.735631	0.660745	-0.149210
145	1042824543													1.591723	3.223981	-4.398084	-0.382582	-0.639662	-0.666681	-0.500240	-0.463251	0.731545	-0.776782	0.613376	-0.142753
146	1042841210													2.468063	3.311136	-4.045109	-0.341376	-0.661798	-0.667447	-0.460207	-0.501481	0.732616	-0.819556	0.557261	-0.133371
147	1042857877													3.363326	3.021985	-3.649990	-0.297754	-0.683618	-0.666340	-0.410293	-0.538605	0.735911	-0.861976	0.492515	-0.120112
148	1042874544													4.107998	2.506794	-2.310974	-0.253472	-0.705078	-0.662281	-0.350363	-0.571240	0.742247	-0.901664	0.420178	-0.102240
149	1042891211													4.698998	1.844041	-0.446508	-0.208514	-0.726560	-0.654700	-0.281561	-0.596479	0.751622	-0.936614	0.341062	-0.080197
150	1042907878													5.091355	0.832612	1.707150	-0.162051	-0.746573	-0.645266	-0.205711	-0.613984	0.762041	-0.965102	0.256228	-0.054082
151	1042924545													4.808770	0.296466	4.115750	-0.115493	-0.765092	-0.633479	-0.125460	-0.621403	0.773381	-0.985353	0.168797	-0.024221
152	1042941212													4.361721	-1.863131	6.519319	-0.068141	-0.781212	-0.620536	-0.043198	-0.619088	0.784132	-0.996740	0.080238	0.008438
153	1042957879													3.770231	-4.949304	8.523563	-0.019155	-0.793707	-0.607999	0.039399	-0.608238	0.792777	-0.999040	-0.008768	0.042922
154	1042974546													2.075325	-9.654447	9.364996	0.027991	-0.800770	-0.598317	0.120285	-0.591504	0.797279	-0.992345	-0.094286	0.079764
155	1042991213													0.134579	-13.982141	8.467207	0.068862	-0.799659	-0.596493	0.197766	-0.575105	0.793816	-0.977828	-0.172629	0.118542
156	1043007880													-4.248090	-17.306879	4.457830	0.100914	-0.786997	-0.608648	0.267821	-0.567699	0.778454	-0.958169	-0.241565	0.153486
157	1043024547													-9.709086	-17.741001	-0.408327	0.123343	-0.763185	-0.634299	0.322632	-0.573616	0.752910	-0.938454	-0.297511	0.175476
158	1043041214													-9.261709	-17.044590	-6.199586	0.134437	-0.739339	-0.659776	0.358485	-0.584436	0.727958	-0.923805	-0.334384	0.186472
159	1043057881													-7.449491	-18.030136	-6.945151	0.133849	-0.721331	-0.679533	0.370893	-0.599406	0.709331	-0.918979	-0.346977	0.187307
160	1043074548													-6.223659	-17.007011	-6.425548	0.124412	-0.710723	-0.692383	0.360826	-0.617623	0.698818	-0.924297	-0.336772	0.179608
161	1043091215													-4.371120	-15.198581	-4.533925	0.106775	-0.705371	-0.700750	0.334210	-0.638310	0.693444	-0.936431	-0.308241	0.167587
162	1043107882													8.371120	3.631350	8.583399	0.084456	-0.679768	-0.728548	0.309198	-0.677189	0.667691	-0.947240	-0.281656	0.152990
163	1043124549													2.536595	17.629232	12.912397	0.097485	-0.682248	-0.724593	0.295748	-0.675313	0.675637	-0.950279	-0.280161	0.135941
164	1043141216													6.573524	-8.976024	-3.798777	0.081670	-0.716150	-0.693151	0.266749	-0.654396	0.707539	-0.960299	-0.242682	0.137588
165	1043157883													-6.915084	-18.897394	4.568849	0.055002	-0.730686	-0.680494	0.224166	-0.655092	0.721529	-0.972998	-0.192229	0.127764
166	1043174550													-6.676163	0.315176	8.755054	0.045095	-0.720978	-0.691489	0.179902	-0.675015	0.715534	-0.982650	-0.156668	0.099265
167	1043191217													4.612537	-6.886918	-5.500229	0.034317	-0.721450	-0.691615	0.143338	-0.681315	0.717818	-0.989079	-0.123768	0.080031
168	1043207884													0.341157	-2.043302	-0.932426	0.023019	-0.706232	-0.707607	0.112766	-0.701443	0.703748	-0.993355	-0.095994	0.063492
169	1043224551													-0.425135	-1.213962	-0.287906	0.017881	-0.698032	-0.715843	0.084906	-0.712311	0.696709	-0.996229	-0.073237	0.046531
170	1043241218													1.554805	-1.452895	-0.356881	0.013477	-0.693755	-0.720085	0.061877	-0.718192	0.693088	-0.997993	-0.053897	0.033249
171	1043257885													0.298199	0.413479	-0.187754	0.007267	-0.696121	-0.717888	0.041315	-0.717085	0.695760	-0.999120	-0.034716	0.023549
172	1043274552													0.459814	-1.649796	0.124286	0.000571	-0.698730	-0.715385	0.022473	-0.715195	0.698563	-0.999747	-0.016475	0.015294
173	1043291219													-0.106158	-2.049371	0.410225	-0.004462	-0.695799	-0.718222	0.006697	-0.718234	0.695769	-0.999968	-0.001706	0.007865
174	1043307886													0.367368	-1.499063	0.925476	-0.008738	-0.693197	-0.720695	-0.006124	-0.720672	0.693249	-0.999943	0.010472	0.002052
175	1043324553													0.754740	-1.044304	0.548251	-0.012077	-0.689279	-0.724396	-0.017442	-0.724193	0.689377	-0.999775	0.020960	-0.003276
176	1043341220													0.639720	-0.402124	-0.045790	-0.014883	-0.684625	-0.728743	-0.027548	-0.728267	0.684740	-0.999510	0.030266	-0.008022
177	1043357887													0.575658	-0.106450	-0.475130	-0.017384	-0.681061	-0.732021	-0.036328	-0.731218	0.681176	-0.999189	0.038434	-0.012030
178	1043374554													0.397132	-0.135164	-0.091281	-0.019986	-0.678175	-0.734628	-0.043702	-0.733480	0.678304	-0.998845	0.045661	-0.014979
179	1043391221													0.199402	-0.142912	0.312592	-0.022860	-0.675420	-0.737079	-0.049742	-0.735590	0.675598	-0.998500	0.052108	-0.016782
180	1043407888													0.652902	0.206644	0.267013	-0.026017	-0.673010	-0.739176	-0.054957	-0.737345	0.673277	-0.998150	0.058139	-0.017803
181	1043424555													0.922316	0.264968	0.238656	-0.029108	-0.671056	-0.740835	-0.059935	-0.738644	0.671426	-0.997778	0.063946	-0.018720
182	1043441222													0.787332	0.530718	0.063430	-0.032146	-0.669825	-0.741823	-0.065020	-0.739233	0.670304	-0.997366	0.069781	-0.019788
183	1043457889													0.788193	0.533470	-0.030473	-0.035275	-0.669406	-0.742059	-0.070237	-0.739025	0.670007	-0.996906	0.075755	-0.020948
184	1043474556													0.857611	0.352680	-0.066974	-0.038269	-0.669501	-0.741824	-0.075544	-0.738305	0.670223	-0.996408	0.081689	-0.022322
185	1043491223													0.660241	0.454336	0.103317	-0.041181	-0.669642	-0.741542	-0.081076	-0.737484	0.670480	-0.995857	0.087732	-0.023922
186	1043507890													0.754367	0.706520	0.099943	-0.044051	-0.670033	-0.741023	-0.087126	-0.736340	0.670979	-0.995223	0.094120	-0.025940
187	1043524557													0.961033	1.149297	-0.162542	-0.046973	-0.671063	-0.739910	-0.094259	-0.734445	0.672091	-0.994439	0.101313	-0.028754
188	1043541224													0.827856	1.109489	-0.412426	-0.050694	-0.672913	-0.737983	-0.102892	-0.731482	0.674053	-0.993400	0.110103	-0.032156
189	1043557891													0.798108	0.887262	-0.224022	-0.055941	-0.675298	-0.735420	-0.112894	-0.727571	0.676679	-0.992031	0.120879	-0.035536
190	1043574558													0.791139	1.138827	-0.207807	-0.062268	-0.678102	-0.732326	-0.123890	-0.722823	0.679837	-0.990340	0.133060	-0.039001
191	1043591225													0.883854	0.987439	-0.325193	-0.069614	-0.681251	-0.728733	-0.135972	-0.717207	0.683466	-0.988264	0.146666	-0.042703
192	1043607892													0.911768	0.823488	-0.166207	-0.077853	-0.684389	-0.724949	-0.149259	-0.710959	0.687211	-0.985728	0.161707	-0.046801
193	1043624559													0.956177	0.504761	0.267959	-0.086741	-0.686575	-0.721867	-0.163667	-0.704932	0.690134	-0.982695	0.178008	-0.051223
194	1043641226													1.041236	0.788438	0.343435	-0.096604	-0.687398	-0.719827	-0.179270	-0.699366	0.691917	-0.979045	0.195885	-0.055669
195	1043657893													1.026830	1.236163	0.102469	-0.108137	-0.687500	-0.718088	-0.196225	-0.693352	0.693367	-0.974578	0.215886	-0.059927
196	1043674560													1.001052	1.552174	0.139977	-0.121614	-0.687166	-0.716249	-0.215050	-0.686224	0.694874	-0.969001	0.238536	-0.064320
197	1043691227													1.098875	1.581830	0.672284	-0.137269	-0.686438	-0.714114	-0.235818	-0.677563	0.696633	-0.962053	0.264028	-0.068866
198	1043707894													1.409808	1.401378	1.256179	-0.155203	-0.685080	-0.711743	-0.258190	-0.667301	0.698604	-0.953546	0.292190	-0.073313
199	1043724561													1.883787	1.431437	1.928586	-0.175219	-0.682395	-0.709673	-0.281876	-0.655878	0.700264	-0.943315	0.322740	-0.077428
200	1043741228													2.347104	1.938356	2.355755	-0.196753	-0.678264	-0.707988	-0.306769	-0.643260	0.701505	-0.931226	0.355212	-0.081507
201	1043757895													2.126351	2.092499	4.538098	-0.221175	-0.669617	-0.709010	-0.333080	-0.631431	0.700252	-0.916591	0.391036	-0.083379
202	1043774562													2.907473	5.463329	4.520123	-0.246034	-0.659438	-0.710359	-0.360722	-0.617946	0.698586	-0.899637	0.428118	-0.085838
203	1043791229													3.924714	5.382458	2.919877	-0.272399	-0.649252	-0.710120	-0.388959	-0.600736	0.698446	-0.880062	0.466464	-0.088892
204	1043807896													4.769196	6.871765	3.508697	-0.301275	-0.637584	-0.709027	-0.418531	-0.579701	0.699128	-0.856776	0.507380	-0.092199
205	1043824563													5.094076	10.142795	4.320545	-0.330878	-0.624206	-0.707734	-0.449241	-0.555350	0.699835	-0.829881	0.549503	-0.096665
206	1043841230													5.090449	14.808429	1.013131	-0.361277	-0.613036	-0.702613	-0.478825	-0.524605	0.703929	-0.800129	0.590742	-0.104009
207	1043857897													5.330599	15.978058	-2.349037	-0.394758	-0.606535	-0.690132	-0.502994	-0.485910	0.714765	-0.768871	0.629291	-0.113267
208	1043874564													4.400658	13.947943	-3.670605	-0.435663	-0.606253	-0.665324	-0.517191	-0.436357	0.736279	-0.736690	0.664869	-0.123444
209	1043891231													-1.843854	4.793451	1.235689	-0.479311	-0.604678	-0.636101	-0.524329	-0.383928	0.760052	-0.703804	0.697828	-0.133030
210	1043907898													-4.447719	2.662938	5.784061	-0.503795	-0.591807	-0.629249	-0.544221	-0.348250	0.763247	-0.670831	0.726970	-0.146627
211	1043924565													-1.039709	4.809813	1.673562	-0.509526	-0.575958	-0.639262	-0.568015	-0.332910	0.752682	-0.646330	0.746621	-0.157526
212	1043941232													1.525606	7.831229	-3.329074	-0.500112	-0.560931	-0.659731	-0.590811	-0.335976	0.733528	-0.633112	0.756622	-0.163379
213	1043957899													2.149128	7.605057	-5.887630	-0.492857	-0.553906	-0.671029	-0.604052	-0.337266	0.722062	-0.626270	0.761209	-0.168364
214	1043974566													2.189307	5.300265	-6.006531	-0.490446	-0.551074	-0.675115	-0.608721	-0.337745	0.717904	-0.623635	0.763050	-0.169805
215	1043991233													1.368145	3.982040	-5.528592	-0.488121	-0.551997	-0.676045	-0.607742	-0.340971	0.717209	-0.626409	0.760946	-0.169037
216	1044007900													0.392960	3.006887	-5.517108	-0.480561	-0.556802	-0.677519	-0.603434	-0.350644	0.716181	-0.636340	0.753007	-0.167487
217	1044024567													-0.011635	2.594520	-6.007675	-0.466625	-0.565166	-0.680330	-0.595302	-0.368197	0.714175	-0.654123	0.738253	-0.164635
218	1044041234													-0.019510	2.623465	-6.279780	-0.447442	-0.576071	-0.684060	-0.581929	-0.393272	0.711826	-0.679084	0.716575	-0.159266
219	1044057901													0.052704	2.575481	-6.010201	-0.424742	-0.588827	-0.687661	-0.562452	-0.423568	0.710097	-0.709395	0.688384	-0.151280
220	1044074568													-0.157827	2.480634	-5.345071	-0.398543	-0.602742	-0.691278	-0.536936	-0.457719	0.708656	-0.743547	0.653602	-0.141213
221	1044091235													0.135097	2.842809	-5.171768	-0.369012	-0.617890	-0.694293	-0.504214	-0.494445	0.708020	-0.780768	0.611340	-0.129093
222	1044107902													1.061860	3.154242	-4.883440	-0.338299	-0.635070	-0.694435	-0.462253	-0.530631	0.710460	-0.819680	0.561352	-0.114051
223	1044124569													1.171159	3.096342	-3.629413	-0.307329	-0.654423	-0.690854	-0.411092	-0.563448	0.716610	-0.858227	0.504239	-0.095864
224	1044141236													1.080391	2.759288	-1.862734	-0.274118	-0.675179	-0.684831	-0.352259	-0.592124	0.724778	-0.894859	0.439912	-0.075526
225	1044157903													1.384376	2.338850	-0.087191	-0.237499	-0.697434	-0.676150	-0.286183	-0.614936	0.734815	-0.928274	0.368021	-0.053547
226	1044174570													1.450770	1.452333	2.217339	-0.196244	-0.718260	-0.667526	-0.215397	-0.632559	0.743958	-0.956605	0.289780	-0.030575
227	1044191237													1.393556	0.355899	4.014450	-0.150432	-0.736338	-0.659680	-0.141375	-0.644392	0.751513	-0.978460	0.206314	-0.007163
228	1044207904													1.560235	-0.643634	5.281086	-0.102114	-0.751409	-0.651887	-0.064973	-0.648876	0.758115	-0.992649	0.119769	0.017438
229	1044224571													1.289478	-2.896035	6.938894	-0.052298	-0.762752	-0.644573	0.012205	-0.645896	0.763327	-0.998557	0.032053	0.043089
230	1044241238													0.929802	-5.416338	8.294815	-0.001233	-0.768513	-0.639833	0.088713	-0.637395	0.765413	-0.996056	-0.055818	0.068963
231	1044257905													0.380154	-9.030682	9.141415	0.047248	-0.767988	-0.638719	0.162075	-0.625065	0.763561	-0.985647	-0.139597	0.094938
232	1044274572													-1.735907	-13.069435	7.885065	0.091089	-0.759477	-0.644126	0.230063	-0.613268	0.755627	-0.968903	-0.217019	0.118866
233	1044291239													-4.235933	-15.378942	4.389439	0.127115	-0.742723	-0.657423	0.287786	-0.606672	0.741032	-0.949221	-0.283393	0.136628
234	1044307906													-6.027482	-15.635588	-3.979205	0.154089	-0.721043	-0.675539	0.332199	-0.606096	0.722697	-0.930538	-0.335774	0.146137
235	1044324573													-4.668428	-17.095377	-6.427875	0.169148	-0.705786	-0.687935	0.354689	-0.607637	0.710615	-0.919557	-0.364201	0.147554
236	1044341240													-3.403367	-17.757214	-7.098129	0.173379	-0.698829	-0.693958	0.355984	-0.612519	0.705759	-0.918267	-0.369401	0.142574
237	1044357907													-2.038944	-16.958326	-7.022782	0.165564	-0.699547	-0.695142	0.339991	-0.621170	0.706084	-0.925740	-0.353244	0.134997
238	1044374574													-1.700861	-14.520320	-3.917276	0.148151	-0.702669	-0.695922	0.311227	-0.634808	0.707218	-0.938717	-0.321365	0.124642
239	1044391241													3.751995	-8.096293	0.718563	0.125921	-0.701529	-0.701428	0.276895	-0.654101	0.703904	-0.952614	-0.282858	0.111884
240	1044407908													9.322540	32.098880	23.188133	0.130812	-0.668312	-0.732289	0.275943	-0.684905	0.674360	-0.952231	-0.290285	0.094823
241	1044424575													12.761091	-1.428150	-5.940760	0.125560	-0.707472	-0.695498	0.253633	-0.654858	0.711921	-0.959117	-0.265790	0.097215
242	1044441242													-5.017268	-20.470764	-2.804221	0.098137	-0.742969	-0.662092	0.223930	-0.631756	0.742119	-0.969652	-0.221091	0.104375
243	1044457909													-10.988868	-8.535273	12.289440	0.076002	-0.721204	-0.688541	0.178844	-0.669480	0.720979	-0.980938	-0.177937	0.078101
244	1044474576													-0.785768	-2.016119	-0.825091	0.073090	-0.718906	-0.691254	0.147702	-0.677662	0.720387	-0.986327	-0.154753	0.056653
245	1044491243													3.122832	-5.386081	-3.380950	0.055952	-0.698379	-0.713537	0.119136	-0.704881	0.699249	-0.991300	-0.124132	0.043762
246	1044507910													0.452721	0.040599	-0.397686	0.048678	-0.683923	-0.727929	0.096490	-0.722164	0.684959	-0.994143	-0.103581	0.030838
247	1044524577													0.411381	-0.083462	-0.434418	0.038861	-0.680475	-0.731740	0.075468	-0.728203	0.681193	-0.996391	-0.081695	0.023055
248	1044541244													0.998447	1.440032	-0.317864	0.029685	-0.686302	-0.726710	0.055778	-0.724760	0.686739	-0.998002	-0.060921	0.016766
249	1044557911													1.565877	-1.786644	-0.153686	0.021110	-0.690453	-0.723069	0.036635	-0.722210	0.690703	-0.999106	-0.041070	0.010049
250	1044574578													0.242141	-2.379960	0.552460	0.014920	-0.689006	-0.724602	0.018688	-0.724364	0.689164	-0.999714	-0.023823	0.002068
251	1044591245													0.415987	-1.741352	0.980419	0.009401	-0.684977	-0.728504	0.002859	-0.728515	0.685024	-0.999952	-0.008523	-0.004890
252	1044607912													0.867553	-0.699352	0.802811	0.004219	-0.680843	-0.732417	-0.011643	-0.732407	0.680767	-0.999923	0.005655	-0.011017
253	1044624579													0.733840	-0.280638	-0.068372	-0.000902	-0.676831	-0.736138	-0.025539	-0.735883	0.676627	-0.999673	0.019410	-0.016622
254	1044641246													0.336759	-0.317592	-0.536292	-0.005517	-0.673335	-0.739317	-0.037893	-0.738657	0.673016	-0.999267	0.031728	-0.021439
255	1044657913													0.433285	-0.292160	-0.102522	-0.009930	-0.670188	-0.742125	-0.048298	-0.740974	0.669794	-0.998784	0.042494	-0.025011
256	1044674580													0.269932	-0.335035	0.349872	-0.014284	-0.667129	-0.744806	-0.057198	-0.743117	0.666713	-0.998261	0.052125	-0.027543
257	1044691247													0.775213	0.180908	0.094526	-0.018941	-0.664973	-0.746627	-0.064947	-0.744366	0.664606	-0.997709	0.061080	-0.029089
258	1044707914													0.993641	0.212733	0.149414	-0.023737	-0.663357	-0.747927	-0.072177	-0.745048	0.663094	-0.997109	0.069723	-0.030194
259	1044724581													0.881736	0.577808	0.199011	-0.028758	-0.662705	-0.748328	-0.079313	-0.744765	0.662597	-0.996435	0.078407	-0.031143
260	1044741248													0.874432	0.168904	0.058820	-0.034059	-0.662649	-0.748155	-0.086421	-0.743833	0.662755	-0.995676	0.087229	-0.031933
261	1044757915													0.851359	0.295584	-0.121018	-0.039185	-0.662351	-0.748168	-0.093432	-0.743034	0.662699	-0.994854	0.095871	-0.032769
262	1044774582													0.937467	0.288136	-0.151037	-0.044158	-0.662086	-0.748126	-0.100509	-0.742113	0.662696	-0.993956	0.104456	-0.033775
263	1044791249													1.035537	0.123338	0.125428	-0.049181	-0.661413	-0.748407	-0.108010	-0.741398	0.662316	-0.992933	0.113409	-0.034976
264	1044807916													0.860585	0.299338	0.276661	-0.054190	-0.660503	-0.748865	-0.116028	-0.740721	0.661717	-0.991767	0.122747	-0.036497
265	1044824583													0.970544	0.407812	0.100169	-0.059200	-0.660107	-0.748835	-0.124311	-0.739436	0.661650	-0.990476	0.132258	-0.038284
266	1044841250													1.070174	0.685128	-0.103729	-0.064257	-0.660673	-0.747918	-0.132902	-0.737126	0.662558	-0.989044	0.141974	-0.040439
267	1044857917													1.053369	0.543190	-0.151211	-0.069721	-0.662587	-0.745733	-0.141828	-0.733374	0.664866	-0.987433	0.152121	-0.042842
268	1044874584													0.821035	0.277579	-0.015778	-0.075630	-0.664956	-0.743044	-0.151059	-0.728937	0.667707	-0.985627	0.162742	-0.045318
269	1044891251													0.662323	0.233665	0.027429	-0.081850	-0.666853	-0.740681	-0.160502	-0.724654	0.670161	-0.983636	0.173734	-0.047718
270	1044907918													0.764745	0.444022	-0.055932	-0.088623	-0.667856	-0.738995	-0.170437	-0.720805	0.671856	-0.981375	0.185494	-0.049948
271	1044924585													0.850243	0.599161	-0.071858	-0.096553	-0.667428	-0.738388	-0.181520	-0.717605	0.672379	-0.978636	0.198953	-0.051865
272	1044941252													0.704334	1.181165	-0.042639	-0.105759	-0.665413	-0.738946	-0.194491	-0.714919	0.671613	-0.975186	0.214748	-0.053808
273	1044957919													0.798736	1.675738	-0.112309	-0.116746	-0.662837	-0.739606	-0.209595	-0.711483	0.670718	-0.970794	0.233322	-0.055865
274	1044974586													0.869498	1.782406	0.057442	-0.130336	-0.660241	-0.739658	-0.226770	-0.706395	0.670509	-0.965188	0.255124	-0.057654
275	1044991253													0.783338	1.808357	0.459332	-0.146454	-0.657503	-0.739081	-0.245785	-0.699522	0.671014	-0.958197	0.279928	-0.059156
276	1045007920													0.622896	2.072903	0.827076	-0.164703	-0.654623	-0.737795	-0.266118	-0.690778	0.672314	-0.949765	0.307073	-0.060434
277	1045024587													0.961097	1.971233	1.471969	-0.185034	-0.651723	-0.735540	-0.287443	-0.679841	0.674680	-0.939755	0.336265	-0.061539
278	1045041254													0.964525	2.049901	4.110576	-0.208456	-0.644776	-0.735398	-0.309805	-0.669664	0.674960	-0.927668	0.368529	-0.060159
279	1045057921													1.839488	4.971723	3.988024	-0.232772	-0.637783	-0.734200	-0.333285	-0.656909	0.676307	-0.913640	0.402124	-0.059653
280	1045074588													2.789024	4.435416	2.810540	-0.259299	-0.631616	-0.730633	-0.357544	-0.639979	0.680139	-0.897177	0.437593	-0.059885
281	1045091255													3.716466	4.524360	3.295434	-0.288663	-0.624086	-0.726079	-0.383178	-0.619674	0.684966	-0.877410	0.475942	-0.060260
282	1045107922													3.740963	6.489810	4.846331	-0.319113	-0.612811	-0.722932	-0.410593	-0.598109	0.688244	-0.854155	0.516458	-0.060751
283	1045124589													4.029566	10.120141	3.136785	-0.349461	-0.601115	-0.718706	-0.438909	-0.572674	0.692390	-0.827790	0.557410	-0.063708
284	1045141256													3.720579	11.702744	0.497396	-0.380432	-0.592014	-0.710486	-0.465324	-0.541385	0.700269	-0.799216	0.597011	-0.069518
285	1045157923													3.606963	13.263506	-1.914288	-0.413670	-0.586052	-0.696721	-0.486421	-0.504618	0.713271	-0.769592	0.633959	-0.076323
286	1045174590													1.631429	10.790088	-3.012344	-0.449968	-0.583251	-0.676274	-0.499380	-0.463474	0.731991	-0.740370	0.667090	-0.082715
287	1045191257													-2.292740	4.617066	0.862738	-0.482313	-0.578790	-0.657553	-0.510026	-0.424747	0.747973	-0.712213	0.696126	-0.090337
288	1045207924													-2.662832	3.297739	2.541500	-0.501099	-0.567848	-0.653030	-0.528709	-0.396515	0.750495	-0.685104	0.721335	-0.101533
289	1045224591													0.933504	5.680523	-1.567506	-0.511713	-0.560114	-0.651477	-0.542877	-0.376923	0.750476	-0.665909	0.737700	-0.111197
290	1045241258													2.328834	7.603904	-4.354566	-0.511107	-0.557312	-0.654349	-0.552449	-0.370210	0.746823	-0.658461	0.743201	-0.118670
291	1045257925													1.838671	6.577476	-5.938804	-0.509554	-0.562048	-0.651504	-0.554505	-0.364475	0.748119	-0.657935	0.742469	-0.125939
292	1045274592													1.253202	4.219367	-5.680776	-0.508380	-0.569835	-0.645630	-0.550788	-0.361159	0.752461	-0.661953	0.738141	-0.130252
293	1045291259													0.327433	3.042242	-4.895112	-0.501174	-0.580353	-0.641884	-0.544909	-0.364579	0.755087	-0.672234	0.728198	-0.133522
294	1045307926													-0.009199	2.526691	-5.179690	-0.483416	-0.594345	-0.642700	-0.538250	-0.377193	0.753666	-0.690359	0.710267	-0.137565
295	1045324593													-0.069112	2.376291	-5.332457	-0.457757	-0.611289	-0.645588	-0.527740	-0.397553	0.750628	-0.715506	0.684308	-0.140620
296	1045341260													0.493172	2.615399	-4.806013	-0.427143	-0.629330	-0.649225	-0.511932	-0.423527	0.747363	-0.745302	0.651590	-0.141267
297	1045357927													1.028381	2.862235	-4.213682	-0.393032	-0.648186	-0.652212	-0.489643	-0.452839	0.745109	-0.778316	0.612203	-0.139399
298	1045374594													1.642926	2.723974	-3.568914	-0.356287	-0.667679	-0.653655	-0.460633	-0.483135	0.744578	-0.812943	0.566379	-0.135420
299	1045391261													2.760885	2.815634	-3.330398	-0.318370	-0.688462	-0.651659	-0.423381	-0.511793	0.747541	-0.848168	0.513895	-0.128542
300	1045407928													3.805397	2.441404	-2.411368	-0.282230	-0.711963	-0.643005	-0.376598	-0.534228	0.756818	-0.882338	0.455751	-0.117348
301	1045424595													4.699850	1.908601	-0.651284	-0.246918	-0.738514	-0.627398	-0.321910	-0.548165	0.771938	-0.914005	0.392572	-0.102383
302	1045441262													4.976207	1.412364	1.082892	-0.210542	-0.767553	-0.605421	-0.260899	-0.552723	0.791473	-0.942127	0.324592	-0.083882
303	1045457929													4.644640	0.535693	2.959564	-0.172257	-0.797963	-0.577566	-0.195752	-0.546907	0.813986	-0.965406	0.253275	-0.061994
304	1045474596													4.172313	-0.897712	4.554531	-0.131106	-0.829074	-0.543550	-0.129671	-0.529231	0.838511	-0.982851	0.180416	-0.038122
305	1045491263													3.408303	-3.123142	5.424586	-0.086561	-0.859561	-0.503649	-0.065689	-0.499522	0.863807	-0.994078	0.107857	-0.013225
306	1045507930													2.436556	-5.748018	5.905482	-0.039208	-0.886875	-0.460343	-0.005846	-0.460486	0.887648	-0.999214	0.037493	0.012870
307	1045524597													1.424042	-8.717059	6.443127	0.008675	-0.908662	-0.417443	0.047924	-0.416601	0.907825	-0.998813	-0.027881	0.039932
308	1045541264													0.099006	-11.443937	6.179213	0.053759	-0.926070	-0.373502	0.093649	-0.367719	0.925210	-0.994153	-0.084717	0.066958
309	1045557931													-2.324148	-14.238526	3.480076	0.092708	-0.939515	-0.329723	0.130160	-0.316872	0.939495	-0.987149	-0.130016	0.092910
310	1045574598													-4.991199	-15.862151	-0.624489	0.123823	-0.948999	-0.289945	0.156121	-0.269924	0.950141	-0.979946	-0.162916	0.114736
311	1045591265													-6.488305	-16.329815	-2.740432	0.144459	-0.956117	-0.254898	0.169182	-0.229941	0.958386	-0.974941	-0.181571	0.128540
312	1045607932													-9.047630	-14.336348	-6.509104	0.154791	-0.960354	-0.231862	0.172631	-0.204788	0.963463	-0.972748	-0.189162	0.134087
313	1045624599													-7.027629	-14.462468	-5.706311	0.152245	-0.965571	-0.210935	0.161201	-0.186305	0.969177	-0.975108	-0.181555	0.127287
314	1045641266													-6.687759	-13.025578	-3.138915	0.140297	-0.968842	-0.204110	0.142076	-0.184316	0.972544	-0.979863	-0.165444	0.111790
315	1045657933													1.990038	-1.075437	5.254829	0.131970	-0.957346	-0.257046	0.128273	-0.240640	0.962101	-0.982919	-0.159941	0.091044
316	1045674600													5.339592	18.335506	14.220440	0.143927	-0.944807	-0.294320	0.124348	-0.277792	0.952559	-0.981745	-0.173697	0.077503
317	1045691267													-5.205725	-23.494059	-10.264428	0.110926	-0.954588	-0.276508	0.104376	-0.265497	0.958445	-0.988333	-0.135177	0.070185
318	1045707934													7.101672	-4.386230	13.869476	0.086637	-0.942665	-0.322298	0.081624	-0.315710	0.945338	-0.992890	-0.108209	0.049592
319	1045724601													-0.763945	-1.319381	-1.709175	0.078477	-0.939123	-0.334498	0.064180	-0.330078	0.941769	-0.994848	-0.095376	0.034370
320	1045741268													-1.129155	-1.113964	-4.315733	0.066597	-0.936031	-0.345559	0.045094	-0.343151	0.938197	-0.996760	-0.078064	0.019356
321	1045757935													0.480031	-1.071339	-0.419742	0.058282	-0.935061	-0.349662	0.031363	-0.348370	0.936832	-0.997807	-0.065567	0.009023
322	1045774602													0.732374	-1.306423	1.272862	0.052035	-0.935776	-0.348734	0.019772	-0.348173	0.937222	-0.998450	-0.055663	0.000385
323	1045791269													-0.233844	-1.530461	1.274065	0.046899	-0.937747	-0.344138	0.010305	-0.344044	0.938897	-0.998846	-0.047579	-0.006472
324	1045807936													-1.109843	-1.292594	-0.345854	0.042482	-0.938966	-0.341377	0.003873	-0.341528	0.939864	-0.999090	-0.041249	-0.010872
325	1045824603													-1.046175	-1.054665	0.188776	0.038125	-0.938515	-0.343128	-0.000508	-0.343395	0.939191	-0.999273	-0.035632	-0.013569
326	1045841270													-0.152997	-0.725198	0.563235	0.033817	-0.937021	-0.347633	-0.003352	-0.347936	0.937512	-0.999422	-0.030539	-0.014907
327	1045857937													0.610144	-0.140936	0.178848	0.029728	-0.935497	-0.352082	-0.005336	-0.352381	0.935841	-0.999544	-0.025943	-0.015467
328	1045874604													0.816904	0.259855	-0.105124	0.025378	-0.934692	-0.354552	-0.007024	-0.354824	0.934907	-0.999653	-0.021235	-0.015570
329	1045891271													0.939826	0.336292	0.000810	0.020467	-0.934797	-0.354591	-0.008722	-0.354819	0.934894	-0.999752	-0.016042	-0.015415
330	1045907938													0.455781	0.429240	-0.243426	0.015084	-0.935798	-0.352213	-0.009994	-0.352376	0.935805	-0.999836	-0.010596	-0.014668
331	1045924605													-0.102672	0.240122	-0.316266	0.009418	-0.937179	-0.348723	-0.010363	-0.348811	0.937136	-0.999902	-0.005212	-0.012997
332	1045941272													0.046291	0.028605	-0.101312	0.003730	-0.938249	-0.345940	-0.009911	-0.345960	0.938197	-0.999944	-0.000071	-0.010590
333	1045957939													0.698082	-0.287292	0.067895	-0.001680	-0.939394	-0.342836	-0.008941	-0.342809	0.939363	-0.999959	0.004644	-0.007823
334	1045974606													0.731684	-0.389708	0.114934	-0.006953	-0.940681	-0.339221	-0.007804	-0.339168	0.940693	-0.999945	0.009188	-0.004983
335	1045991273													0.300526	-0.268033	0.075394	-0.011998	-0.942239	-0.334726	-0.006060	-0.334675	0.942314	-0.999910	0.013334	-0.001694
336	1046007940													0.131070	-0.284281	-0.152028	-0.016744	-0.943886	-0.329848	-0.003411	-0.329838	0.944031	-0.999854	0.016932	0.002303
337	1046024607													0.306467	-0.131978	-0.174455	-0.021090	-0.945536	-0.324834	0.000160	-0.324910	0.945745	-0.999778	0.019894	0.007004
338	1046041274													0.623547	-0.184068	0.077906	-0.025339	-0.947390	-0.319077	0.004213	-0.319278	0.947652	-0.999670	0.022669	0.012081
339	1046057941													0.769289	-0.224105	0.157362	-0.029614	-0.949526	-0.312288	0.008309	-0.312648	0.949833	-0.999527	0.025534	0.017148
340	1046074608													0.704710	-0.248673	0.134151	-0.034048	-0.951733	-0.305034	0.012165	-0.305583	0.952088	-0.999346	0.028706	0.021983
341	1046091275													0.521821	-0.144008	0.106512	-0.038731	-0.953661	-0.298381	0.015657	-0.299147	0.954079	-0.999127	0.032281	0.026518
342	1046107942													0.367490	-0.166726	0.010571	-0.043723	-0.955142	-0.292902	0.018902	-0.293921	0.955643	-0.998865	0.036247	0.030905
343	1046124609													0.493532	-0.253267	-0.017291	-0.048868	-0.956327	-0.288186	0.022048	-0.289493	0.956926	-0.998562	0.040409	0.035232
344	1046141276													0.971063	-0.176096	-0.129860	-0.054310	-0.957408	-0.283583	0.025001	-0.285217	0.958137	-0.998211	0.044947	0.039426
345	1046157943													1.263140	0.092143	-0.207149	-0.060066	-0.958884	-0.277370	0.027146	-0.279338	0.959809	-0.997825	0.050123	0.042808
346	1046174610													1.590253	0.319704	-0.146701	-0.066638	-0.960770	-0.269222	0.027552	-0.271491	0.962046	-0.997397	0.056691	0.044563
347	1046191277													1.866675	0.466034	-0.026086	-0.074213	-0.962741	-0.260041	0.025551	-0.262511	0.964591	-0.996915	0.064941	0.044081
348	1046207944													1.153961	0.416140	0.186632	-0.082941	-0.964658	-0.250111	0.021243	-0.252630	0.967330	-0.996328	0.074918	0.041446
349	1046224611													0.755560	0.091182	0.322650	-0.092899	-0.966203	-0.240460	0.014454	-0.242788	0.969972	-0.995571	0.086634	0.036520
350	1046241278													0.618159	-0.160712	0.610972	-0.103802	-0.967847	-0.229121	0.008010	-0.231172	0.972880	-0.994566	0.099152	0.031748
351	1046257945													0.834111	-0.383992	0.691830	-0.115578	-0.970207	-0.212933	0.004685	-0.214899	0.976625	-0.993287	0.111879	0.029383
352	1046274612													0.441499	-1.136204	0.444597	-0.127024	-0.973270	-0.191339	0.003417	-0.193330	0.981128	-0.991894	0.123974	0.027883
353	1046291279													0.413221	-1.521491	0.312554	-0.137558	-0.976371	-0.166669	0.004168	-0.168837	0.985635	-0.990485	0.134887	0.027294
354	1046307946													0.206494	-1.753421	0.345078	-0.147247	-0.979143	-0.139989	0.007164	-0.142584	0.989757	-0.989074	0.144736	0.028010
355	1046324613													-0.013730	-1.255975	0.533442	-0.156281	-0.981302	-0.112355	0.011793	-0.115598	0.993226	-0.987642	0.153897	0.029638
356	1046341280													0.412978	-0.341178	0.557730	-0.164362	-0.982786	-0.084362	0.017707	-0.088451	0.995923	-0.986241	0.162198	0.031940
357	1046357947													0.114884	-0.027046	0.329753	-0.171230	-0.983681	-0.055246	0.025081	-0.060408	0.997859	-0.984912	0.169478	0.035015
358	1046374614													-0.323886	-0.151121	0.388035	-0.177229	-0.983845	-0.025269	0.033361	-0.031666	0.998942	-0.983604	0.176198	0.038435
359	1046391281													-0.141187	0.127558	0.689445	-0.182023	-0.983273	0.006450	0.042112	-0.001242	0.999112	-0.982392	0.182133	0.041634
360	1046407948													0.387556	0.690470	0.812623	-0.185181	-0.981808	0.041960	0.051351	0.032973	0.998136	-0.981362	0.186991	0.044311
361	1046424615													0.715007	1.118169	0.437807	-0.185812	-0.978952	0.084416	0.061492	0.074158	0.995349	-0.980659	0.190139	0.046418
362	1046441282													0.011408	1.352529	0.229157	-0.183838	-0.973793	0.133902	0.072116	0.122495	0.989846	-0.980307	0.191628	0.047707
363	1046457949													-0.757001	1.052126	0.362838	-0.180088	-0.965158	0.189836	0.082692	0.177453	0.980649	-0.980168	0.192301	0.047854
364	1046474616													-0.302667	-1.030513	0.473533	-0.175619	-0.950578	0.256045	0.093187	0.242868	0.965573	-0.980038	0.193433	0.045929
365	1046491283													0.356333	-2.144534	0.605683	-0.169229	-0.927235	0.334062	0.103934	0.320271	0.941607	-0.980081	0.194068	0.042172
366	1046507950													-1.048779	-3.679601	0.248404	-0.161213	-0.892768	0.420684	0.113384	0.406683	0.906506	-0.980385	0.193839	0.035663
367	1046524617													-2.869503	-3.975515	-0.056922	-0.152281	-0.848627	0.506599	0.120652	0.492781	0.861748	-0.980945	0.192350	0.027347
368	1046541284													-4.105546	-3.665128	-0.281151	-0.143075	-0.797118	0.586628	0.125391	0.573350	0.809658	-0.981737	0.189400	0.017919
369	1046557951													-5.044645	-3.257135	-0.334239	-0.135311	-0.739933	0.658931	0.128263	0.646370	0.752166	-0.982466	0.186292	0.007445
370	1046574618													-5.565855	-2.528553	-0.142812	-0.130019	-0.680533	0.721090	0.129275	0.709420	0.692829	-0.983048	0.183300	-0.004262
371	1046591285													-5.553323	-1.739611	-0.030834	-0.127338	-0.620940	0.773446	0.128894	0.762822	0.633631	-0.983449	0.180378	-0.017100
372	1046607952													-5.244664	-1.022332	0.147099	-0.127335	-0.562944	0.816627	0.127167	0.807268	0.576321	-0.983674	0.177233	-0.031205
373	1046624619													-4.756591	-0.631409	0.084745	-0.129829	-0.506966	0.852133	0.124557	0.844260	0.521259	-0.983682	0.173814	-0.046464
374	1046641286													-4.112313	-0.480183	0.071821	-0.134108	-0.453232	0.881247	0.121440	0.875060	0.468532	-0.983498	0.169852	-0.062312
375	1046657953													-3.493359	-0.459095	0.069326	-0.139585	-0.401131	0.905323	0.118160	0.900994	0.417431	-0.983135	0.165240	-0.078367
376	1046674620													-3.073264	-0.171434	0.213954	-0.145964	-0.349673	0.925431	0.115268	0.923067	0.366961	-0.982552	0.160236	-0.094429
377	1046691287													-2.058506	-0.262127	0.750320	-0.152632	-0.300143	0.941604	0.112432	0.941308	0.318274	-0.981867	0.154445	-0.109928
378	1046707954													-1.370029	-0.467406	0.505401	-0.159476	-0.250400	0.954917	0.110908	0.956629	0.269371	-0.980952	0.148866	-0.124788
379	1046724621													-1.192356	-0.313749	0.092566	-0.166725	-0.202324	0.965022	0.111396	0.968590	0.222318	-0.979691	0.144566	-0.138950
380	1046741288													-0.747469	-0.141908	-0.289588	-0.173104	-0.157650	0.972204	0.114431	0.977202	0.178836	-0.978233	0.142207	-0.151117
381	1046757955													-0.290503	-0.055156	-0.416496	-0.178137	-0.117605	0.976953	0.120095	0.982812	0.140208	-0.976650	0.142304	-0.160951
382	1046774622													0.075723	0.078243	-0.401915	-0.181906	-0.082180	0.979876	0.128397	0.985985	0.106528	-0.974897	0.145191	-0.168805
383	1046791289													-0.018693	0.763891	-0.569788	-0.184875	-0.049620	0.981509	0.139273	0.987322	0.076147	-0.972843	0.150775	-0.175620
384	1046807956													0.067975	1.043059	-0.251949	-0.187078	-0.021508	0.982110	0.151460	0.987174	0.050470	-0.970599	0.158192	-0.181421
385	1046824623													0.832889	0.683728	-0.095183	-0.187342	0.005324	0.982280	0.165156	0.985921	0.026155	-0.968311	0.167130	-0.185584
386	1046841290													0.758159	1.044162	-0.190237	-0.186673	0.034300	0.981823	0.179788	0.983705	-0.000182	-0.965831	0.176486	-0.189798
387	1046857957													1.004015	1.691845	-0.000804	-0.185093	0.063902	0.980641	0.194328	0.980559	-0.027218	-0.963316	0.185528	-0.193912
388	1046874624													1.562415	2.083714	0.005927	-0.182029	0.094582	0.978734	0.208234	0.976495	-0.055637	-0.960991	0.193678	-0.197445
389	1046891291													1.760894	2.395838	-0.435143	-0.177820	0.128708	0.975610	0.221782	0.971145	-0.087696	-0.958745	0.200778	-0.201234
390	1046907958													1.845358	3.824015	-0.847158	-0.172878	0.165095	0.971008	0.233894	0.964533	-0.122351	-0.956769	0.205962	-0.205361
391	1046924625													3.089923	3.051757	-0.119069	-0.165217	0.201435	0.965468	0.243677	0.956908	-0.157950	-0.955680	0.209166	-0.207182
392	1046941292													3.466024	2.380639	-0.440388	-0.154360	0.244549	0.957271	0.252451	0.946485	-0.201086	-0.955218	0.210624	-0.207836
393	1046957959													3.291552	3.392701	-0.711110	-0.142092	0.292033	0.945794	0.258758	0.933223	-0.249277	-0.955434	0.209312	-0.208169
394	1046974626													3.388121	3.787748	-0.947906	-0.128567	0.339952	0.931613	0.262084	0.917658	-0.298690	-0.956443	0.205759	-0.207077
395	1046991293													3.354152	4.264497	-1.290015	-0.114923	0.385759	0.915414	0.262906	0.900471	-0.346457	-0.957953	0.200852	-0.204903
396	1047007960													3.372127	5.204330	-1.582952	-0.102337	0.425487	0.899159	0.261054	0.883711	-0.388465	-0.959884	0.194975	-0.201512
397	1047024627													3.261485	4.533889	-1.360975	-0.090326	0.455336	0.885726	0.256338	0.870026	-0.421124	-0.962358	0.189007	-0.195306
398	1047041294													0.768093	1.311858	-0.819161	-0.079697	0.474657	0.876555	0.251348	0.860508	-0.443114	-0.964610	0.185006	-0.187883
399	1047057961													-2.740278	-8.349146	3.069246	-0.070296	0.478027	0.875528	0.254089	0.857329	-0.447689	-0.964623	0.190991	-0.181728
400	1047074628													-0.046176	-6.431601	4.143408	-0.060739	0.477897	0.876313	0.260117	0.855178	-0.448342	-0.963665	0.200712	-0.176252
401	1047091295													0.218274	3.207832	0.709072	-0.058339	0.485292	0.872404	0.257609	0.851613	-0.456500	-0.964486	0.198107	-0.174698
402	1047107962													1.410979	8.103932	0.124938	-0.063125	0.482911	0.873391	0.245084	0.855839	-0.455492	-0.967445	0.185301	-0.172379
403	1047124629													1.199166	3.289331	0.535583	-0.066310	0.463976	0.883363	0.229192	0.868722	-0.439082	-0.971120	0.173344	-0.163944
404	1047141296													-0.798765	2.227108	0.894206	-0.066023	0.442606	0.894282	0.214005	0.881664	-0.420561	-0.974599	0.163614	-0.152930
405	1047157963													-1.886889	2.628185	0.878944	-0.065487	0.424858	0.902888	0.197977	0.892375	-0.405551	-0.978017	0.152193	-0.142552
406	1047174630													-1.017125	-0.267638	1.099807	-0.062636	0.416981	0.906754	0.184561	0.897708	-0.400072	-0.980823	0.142293	-0.133187
407	1047191297													-0.528742	-0.495712	-0.092298	-0.058017	0.424026	0.903790	0.172620	0.895939	-0.409262	-0.983278	0.132269	-0.125175
408	1047207964													-0.162525	0.852102	-0.503161	-0.053277	0.436981	0.897892	0.161561	0.891094	-0.424086	-0.985424	0.122470	-0.118073
409	1047224631													0.039236	2.368805	-0.469041	-0.047356	0.446085	0.893737	0.150782	0.887680	-0.435073	-0.987432	0.114156	-0.109299
410	1047241298													0.416543	3.199237	0.116410	-0.041258	0.445550	0.894306	0.140290	0.888784	-0.436327	-0.989251	0.107460	-0.099176
411	1047257965													0.346601	2.415827	0.426708	-0.035697	0.440704	0.896943	0.131217	0.891811	-0.432960	-0.990711	0.102239	-0.089663
412	1047274632													-0.125013	1.108445	-0.117334	-0.031208	0.437517	0.898668	0.123995	0.893856	-0.430868	-0.991792	0.097983	-0.082145
413	1047291299													-0.131744	0.918214	-0.383862	-0.027844	0.437017	0.899022	0.117789	0.894540	-0.431190	-0.992648	0.093889	-0.076383
414	1047307966													-0.147704	1.294830	0.015314	-0.024784	0.437123	0.899060	0.112357	0.894856	-0.431982	-0.993359	0.090309	-0.071292
415	1047324633													-0.088294	1.500606	0.246730	-0.021656	0.436506	0.899441	0.107858	0.895421	-0.431958	-0.993930	0.087658	-0.066472
416	1047341300													-0.247288	0.794705	0.095159	-0.018527	0.436040	0.899737	0.104084	0.895843	-0.432009	-0.994396	0.085645	-0.061982
417	1047357967													-0.103033	0.201347	-0.100091	-0.015813	0.438604	0.898541	0.100579	0.894793	-0.435004	-0.994803	0.083495	-0.058264
418	1047374634													0.193550	0.548636	-0.276987	-0.013742	0.443644	0.896098	0.097173	0.892533	-0.440388	-0.995173	0.081025	-0.055375
419	1047391301													0.150005	1.121265	-0.336393	-0.012035	0.448244	0.893830	0.094066	0.890438	-0.445277	-0.995493	0.078720	-0.052881
420	1047407968													0.067928	1.341610	-0.233410	-0.010754	0.450466	0.892729	0.091142	0.889506	-0.447742	-0.995780	0.076550	-0.050622
421	1047424635													0.054621	1.079511	-0.098776	-0.010211	0.450089	0.892925	0.088102	0.889904	-0.447558	-0.996059	0.074098	-0.048740
422	1047441302													-0.139212	0.794752	-0.051217	-0.010252	0.448598	0.893675	0.084804	0.890892	-0.446228	-0.996345	0.071212	-0.047177
423	1047457969													-0.477095	0.521034	0.077195	-0.010983	0.447470	0.894232	0.080792	0.891759	-0.445240	-0.996670	0.067357	-0.045946
424	1047474636													-0.527920	0.181891	0.137004	-0.012012	0.447468	0.894219	0.075787	0.892119	-0.445399	-0.997052	0.062420	-0.044629
425	1047491303													-0.440839	0.140044	-0.019171	-0.013420	0.448981	0.893441	0.069764	0.891764	-0.447090	-0.997473	0.056330	-0.043290
426	1047507970													-0.375495	0.605155	-0.099581	-0.015267	0.451362	0.892210	0.062967	0.890977	-0.449661	-0.997899	0.049315	-0.042023
427	1047524637													-0.428356	1.104019	-0.035312	-0.017268	0.453668	0.891003	0.055774	0.890186	-0.452171	-0.998294	0.041887	-0.040675
428	1047541304													-0.470946	1.175798	0.036831	-0.019272	0.455004	0.890281	0.048340	0.889829	-0.453727	-0.998645	0.034292	-0.039143
429	1047557971													-0.309703	1.186268	-0.029392	-0.021331	0.455477	0.889992	0.040695	0.889853	-0.454430	-0.998944	0.026525	-0.037517
430	1047574638													-0.231266	1.072377	-0.066694	-0.023807	0.455288	0.890026	0.033009	0.890151	-0.454469	-0.999171	0.018559	-0.036220
431	1047591305													-0.258769	1.139621	-0.005261	-0.026490	0.454058	0.890578	0.025350	0.890909	-0.453473	-0.999328	0.010563	-0.035110
432	1047607972													-0.220659	1.196173	0.038218	-0.029078	0.452170	0.891458	0.017946	0.891927	-0.451823	-0.999416	0.002860	-0.034050
433	1047624639													-0.220193	0.919919	0.103177	-0.031733	0.450412	0.892257	0.011007	0.892810	-0.450300	-0.999436	-0.004468	-0.033290
434	1047641306													-0.302618	1.001249	0.144285	-0.034493	0.449983	0.892371	0.004476	0.892963	-0.450108	-0.999395	-0.011532	-0.032815
435	1047657973													-0.589773	0.826157	0.100020	-0.037271	0.450619	0.891938	-0.001875	0.892525	-0.450994	-0.999303	-0.018481	-0.032421
436	1047674640													-0.643831	0.650226	0.109381	-0.039912	0.452372	0.890936	-0.008488	0.891460	-0.453019	-0.999167	-0.025643	-0.031741
437	1047691307													-0.265675	0.360548	0.016982	-0.042910	0.455236	0.889336	-0.015581	0.889743	-0.456195	-0.998957	-0.033432	-0.031086
438	1047707974													-0.368088	0.574446	-0.019256	-0.046412	0.458857	0.887297	-0.023427	0.887510	-0.460193	-0.998648	-0.042145	-0.030442
439	1047724641													-0.005042	-0.035011	-0.105251	-0.050491	0.462252	0.885310	-0.032404	0.885216	-0.464051	-0.998199	-0.052118	-0.029716
440	1047741308													0.146687	-0.067161	-0.195956	-0.056137	0.465572	0.883228	-0.042857	0.882684	-0.468009	-0.997503	-0.064126	-0.029598
441	1047757975													0.304421	-0.086503	-0.167461	-0.063491	0.468478	0.881191	-0.054835	0.880001	-0.471797	-0.996475	-0.078275	-0.030184
442	1047774642													0.374183	-0.003664	-0.044592	-0.072414	0.470994	0.879159	-0.068362	0.877056	-0.475499	-0.995029	-0.094533	-0.031313
443	1047791309													0.111007	0.152479	0.057400	-0.082844	0.473460	0.876911	-0.082984	0.873602	-0.479514	-0.993101	-0.112495	-0.033083
444	1047807976													0.164090	0.127057	0.158542	-0.094553	0.476031	0.874331	-0.098422	0.869493	-0.484040	-0.990643	-0.131820	-0.035361
445	1047824643													-0.051085	0.561308	0.468010	-0.107283	0.479322	0.871057	-0.114034	0.864400	-0.489703	-0.987667	-0.151867	-0.038076
446	1047841310													-0.272622	0.732842	0.688521	-0.120667	0.483225	0.867141	-0.129532	0.858391	-0.496374	-0.984206	-0.172218	-0.040986
447	1047857977													-0.464998	0.957444	0.618441	-0.134536	0.487680	0.862594	-0.144580	0.851531	-0.503975	-0.980304	-0.192516	-0.044053
448	1047874644													-0.418012	1.563222	1.885591	-0.149550	0.490395	0.858573	-0.158923	0.845127	-0.510396	-0.975899	-0.212776	-0.048454
449	1047891311													2.060259	-1.539087	3.566291	-0.163874	0.491653	0.855232	-0.173982	0.838958	-0.515635	-0.971018	-0.233294	-0.051945
450	1047907978													-0.460482	-1.056725	1.961028	-0.178313	0.497081	0.849185	-0.187603	0.830011	-0.525250	-0.965924	-0.252969	-0.054747
451	1047924645													-1.907362	-1.424651	2.654912	-0.195595	0.503373	0.841640	-0.203059	0.818830	-0.536921	-0.959432	-0.275922	-0.057945
452	1047941312													-2.521440	-0.818863	3.350733	-0.213307	0.508841	0.834015	-0.220131	0.806679	-0.548463	-0.951863	-0.300584	-0.060059
453	1047957979													-2.794286	-0.960087	4.062826	-0.231829	0.510143	0.828257	-0.240048	0.795120	-0.556922	-0.942673	-0.327932	-0.061873
454	1047974646													-2.865137	-2.234294	3.767778	-0.250114	0.508046	0.824216	-0.262285	0.783890	-0.562782	-0.932014	-0.356939	-0.062809
455	1047991313													-2.605547	-3.580172	3.106934	-0.268869	0.504327	0.820588	-0.286866	0.771366	-0.568068	-0.919466	-0.388135	-0.062722
456	1048007980													-1.626302	-4.936701	2.614657	-0.288395	0.500404	0.816348	-0.312777	0.756570	-0.574258	-0.904986	-0.420948	-0.061677
457	1048024647													-0.533739	-7.037587	1.634521	-0.308187	0.496984	0.811189	-0.339527	0.739077	-0.581797	-0.888674	-0.454722	-0.059035
458	1048041314													0.080599	-8.369546	0.230196	-0.329556	0.497060	0.802698	-0.364893	0.717074	-0.593850	-0.870773	-0.488606	-0.054942
459	1048057981													0.412502	-7.892677	-0.832203	-0.353219	0.501524	0.789754	-0.386772	0.690366	-0.611393	-0.851847	-0.521410	-0.049875
460	1048074648													1.347771	-5.516608	-0.568982	-0.377750	0.509427	0.773168	-0.404555	0.660304	-0.632719	-0.832851	-0.551799	-0.043339
461	1048091315													1.957555	-3.031519	0.697098	-0.401072	0.515562	0.757190	-0.421835	0.629782	-0.652250	-0.813140	-0.581008	-0.035106
462	1048107982													1.438144	-4.054340	0.951398	-0.419251	0.519077	0.744840	-0.439334	0.601968	-0.666799	-0.794490	-0.606790	-0.024327
463	1048124649													-0.487775	-6.272458	-1.087431	-0.431364	0.523667	0.734642	-0.451985	0.579294	-0.678327	-0.780791	-0.624653	-0.013196
464	1048141316													-1.087103	-6.855427	-3.050547	-0.439459	0.532802	0.723186	-0.458099	0.559594	-0.690651	-0.772671	-0.634804	-0.001843
465	1048157983													-1.329685	-4.734597	-3.471856	-0.447809	0.545558	0.708402	-0.457944	0.540538	-0.705766	-0.767955	-0.640457	0.007776
466	1048174650													-0.952341	-3.568069	-3.247262	-0.452435	0.558240	0.695465	-0.454648	0.526506	-0.718391	-0.767201	-0.641217	0.015593
467	1048191317													-0.320326	-2.817188	-3.206118	-0.449428	0.570736	0.687222	-0.449866	0.520025	-0.726082	-0.771774	-0.635480	0.023041
468	1048207984													0.148233	-2.095779	-3.361550	-0.437472	0.582620	0.684962	-0.443335	0.522970	-0.727981	-0.782351	-0.622139	0.029511
469	1048224651													0.210079	-1.952721	-3.573467	-0.416692	0.593335	0.688710	-0.434555	0.535433	-0.724205	-0.798454	-0.601053	0.034727
470	1048241318													0.047655	-2.397714	-3.856816	-0.388592	0.603499	0.696266	-0.421439	0.555566	-0.716754	-0.819381	-0.571958	0.038450
471	1048257985													-0.100545	-2.273466	-3.810992	-0.356268	0.614267	0.704094	-0.402007	0.579465	-0.708951	-0.843483	-0.535627	0.040495
472	1048274652													-0.728257	-2.391723	-3.547944	-0.321430	0.625939	0.710552	-0.375230	0.604752	-0.702479	-0.869417	-0.492418	0.040486
473	1048291319													-2.090225	-2.621296	-3.192359	-0.286566	0.640542	0.712451	-0.339432	0.627523	-0.700714	-0.895916	-0.442630	0.037593
474	1048307986													-3.326657	-2.451239	-2.051922	-0.253252	0.659101	0.708131	-0.294835	0.644584	-0.705396	-0.921377	-0.387424	0.031084
475	1048324653													-4.084052	-1.679517	-0.394301	-0.221162	0.680977	0.698110	-0.243925	0.654458	-0.715672	-0.944240	-0.328565	0.021366
476	1048341320													-4.202779	-0.443609	0.881102	-0.188811	0.704156	0.684482	-0.188526	0.658062	-0.728980	-0.963747	-0.266682	0.008502
477	1048357987													-3.874941	0.702413	1.684350	-0.154789	0.725622	0.670458	-0.130346	0.657705	-0.741912	-0.979311	-0.202231	-0.007224
478	1048374654													-3.322598	1.563627	2.224881	-0.119079	0.744939	0.656419	-0.070183	0.653154	-0.753966	-0.990401	-0.135851	-0.025494
479	1048391321													-2.667651	2.842288	2.911194	-0.080996	0.760857	0.643845	-0.008817	0.645395	-0.763798	-0.996675	-0.067541	-0.045566
480	1048407988													-1.694700	4.180430	3.435750	-0.039665	0.770607	0.636075	0.052743	0.637303	-0.768806	-0.997820	0.003053	-0.065923
481	1048424655													-1.451923	4.687869	3.432256	0.002965	0.775249	0.631648	0.115096	0.627189	-0.770316	-0.993350	0.074985	-0.087368
482	1048441322													-1.601511	5.894717	3.294315	0.044079	0.777066	0.627873	0.177896	0.612335	-0.770324	-0.983062	0.145651	-0.111246
483	1048457989													-0.719705	8.505549	3.425856	0.082669	0.774817	0.626757	0.239363	0.595063	-0.767206	-0.967404	0.213447	-0.136270
484	1048474656													-0.467466	10.223244	4.084721	0.117068	0.766062	0.632016	0.298168	0.579921	-0.758147	-0.947307	0.277202	-0.160525
485	1048491323													0.093115	11.569555	3.098844	0.144946	0.753835	0.640877	0.352849	0.565749	-0.745269	-0.924385	0.334156	-0.183987
486	1048507990													3.804219	13.048273	-1.489735	0.165876	0.736388	0.655910	0.400468	0.557510	-0.727192	-0.901172	0.383294	-0.202423
487	1048524657													5.034922	13.532655	-4.780000	0.176919	0.716212	0.675086	0.435586	0.558099	-0.706251	-0.882590	0.419007	-0.213233
488	1048541324													4.613917	13.554237	-5.848058	0.178018	0.697333	0.694288	0.456578	0.566478	-0.686031	-0.871691	0.439123	-0.217544
489	1048557991													4.038936	13.147688	-7.036871	0.172611	0.683610	0.709142	0.461283	0.580018	-0.671414	-0.870301	0.443008	-0.215221
490	1048574658													2.972759	12.654379	-6.542757	0.159627	0.674570	0.720746	0.453434	0.598430	-0.660514	-0.876879	0.432247	-0.210348
491	1048591325													2.658288	10.782557	-4.279479	0.141899	0.668601	0.729957	0.436415	0.619628	-0.652382	-0.888485	0.411137	-0.203863
492	1048607992													1.631590	7.839517	-1.889238	0.123425	0.666006	0.735665	0.412124	0.639978	-0.648523	-0.902729	0.383229	-0.195487
493	1048624659													-6.328153	-10.836623	12.755428	0.107054	0.641916	0.759265	0.397894	0.672175	-0.624388	-0.911164	0.368950	-0.183455
494	1048641326													-3.059325	-11.055457	5.214343	0.121166	0.660048	0.741388	0.384356	0.657430	-0.648117	-0.915199	0.363487	-0.174035
495	1048657993													-6.294777	7.689490	-2.920748	0.111225	0.692050	0.713229	0.364748	0.639169	-0.677069	-0.924439	0.335456	-0.181332
496	1048674660													8.473531	18.479446	0.459002	0.093713	0.710416	0.697515	0.335288	0.637154	-0.693986	-0.937443	0.298904	-0.178485
497	1048691327													7.110572	4.525347	7.516316	0.079529	0.699338	0.710353	0.298754	0.663131	-0.686297	-0.951010	0.266802	-0.156192
498	1048707994													-2.394240	4.528869	-2.085368	0.072616	0.700892	0.709562	0.269949	0.671073	-0.690499	-0.960133	0.241686	-0.140474
499	1048724661													-0.471237	3.953416	-1.455298	0.059317	0.687869	0.723407	0.243761	0.692763	-0.678719	-0.968020	0.216598	-0.126583
500	1048741328													0.499490	2.585186	-0.993896	0.051777	0.680069	0.731318	0.219988	0.706545	-0.672607	-0.974128	0.195706	-0.113024
501	1048757995													-0.604603	2.440463	-0.305982	0.046903	0.675470	0.735895	0.199184	0.715586	-0.669524	-0.978839	0.177981	-0.100979
502	1048774662													-0.858965	1.391799	-0.173026	0.044880	0.676691	0.734898	0.180853	0.717980	-0.672158	-0.982486	0.163075	-0.090159
503	1048791329													-0.367152	1.406254	-0.031776	0.042343	0.682678	0.729492	0.163819	0.715521	-0.679112	-0.985581	0.148260	-0.081538
504	1048807996													-0.122526	2.457063	0.153511	0.039169	0.688904	0.723794	0.147689	0.712403	-0.686054	-0.988258	0.133768	-0.073839
505	1048824663													0.544603	3.221652	0.337025	0.036953	0.689052	0.723769	0.133651	0.714349	-0.686908	-0.990339	0.122116	-0.065695
506	1048841330													0.537252	2.082312	0.235299	0.035377	0.687406	0.725412	0.121991	0.717467	-0.685827	-0.991900	0.112757	-0.058475
507	1048857997													0.122571	2.550050	-0.122565	0.033778	0.685789	0.727016	0.112380	0.720211	-0.684592	-0.993091	0.104826	-0.052741
508	1048874664													-0.349042	1.860690	-0.311810	0.032609	0.681750	0.730858	0.103911	0.724972	-0.680895	-0.994052	0.098148	-0.047201
509	1048891331													-0.273212	1.594052	-0.225331	0.032284	0.677224	0.735068	0.096249	0.729927	-0.676715	-0.994834	0.092597	-0.041617
510	1048907998													-0.141910	1.199863	0.124132	0.032175	0.673653	0.738347	0.089664	0.733805	-0.673417	-0.995452	0.087871	-0.036792
511	1048924665													-0.018867	1.330684	0.187049	0.031888	0.671228	0.740565	0.084298	0.736496	-0.671169	-0.995930	0.083831	-0.033098
512	1048941332													0.001144	0.897853	0.009748	0.031294	0.669463	0.742186	0.079558	0.738525	-0.669515	-0.996339	0.079999	-0.030149
513	1048957999													-0.022755	0.558233	-0.034089	0.030451	0.669189	0.742468	0.075046	0.739185	-0.669308	-0.996715	0.076100	-0.027711
514	1048974666													-0.259253	0.967181	-0.074155	0.029306	0.669925	0.741851	0.070473	0.738938	-0.670078	-0.997083	0.071918	-0.025556
515	1048991333													-0.113981	0.955545	0.042021	0.028026	0.670381	0.741488	0.065913	0.738926	-0.670555	-0.997432	0.067667	-0.023478
516	1049008000													-0.155749	1.125921	-0.142528	0.026556	0.670652	0.741297	0.061348	0.739067	-0.670832	-0.997763	0.063292	-0.021517
517	1049024667													-0.015548	0.839195	0.043714	0.024931	0.669752	0.742167	0.056592	0.740261	-0.669933	-0.998086	0.058703	-0.019447
518	1049041334													-0.110587	0.406414	-0.057155	0.022916	0.668864	0.743032	0.051403	0.741456	-0.669030	-0.998415	0.053525	-0.017390
519	1049058001													-0.186631	-0.107293	-0.193633	0.020004	0.668793	0.743180	0.045108	0.741968	-0.668916	-0.998782	0.046904	-0.015326
520	1049074668													-0.417157	-0.334116	-0.290951	0.016269	0.670353	0.741864	0.037265	0.741040	-0.670426	-0.999173	0.038553	-0.012925
521	1049091335													-0.348566	-0.240633	-0.186410	0.011775	0.673394	0.739190	0.027821	0.738734	-0.673422	-0.999544	0.028495	-0.010035
522	1049108002													-0.244760	0.530510	-0.016500	0.006697	0.677354	0.735626	0.017276	0.735455	-0.677354	-0.999828	0.017245	-0.006776
523	1049124669													-0.284263	0.808600	0.134399	0.001215	0.680675	0.732584	0.005891	0.732567	-0.680669	-0.999982	0.005142	-0.003119
524	1049141336													-0.430210	0.666587	-0.085567	-0.004522	0.683973	0.729493	-0.006232	0.729467	-0.683987	-0.999970	-0.007639	0.000964
525	1049158003													-0.288453	0.797311	-0.066442	-0.010959	0.686807	0.726757	-0.019297	0.726520	-0.686874	-0.999754	-0.021551	0.005291
526	1049174670													-0.010614	0.660775	0.251832	-0.017920	0.689216	0.724334	-0.032970	0.723649	-0.689380	-0.999296	-0.036235	0.009755
527	1049191337													-0.260228	0.852186	0.356833	-0.025299	0.691538	0.721897	-0.046983	0.720508	-0.691854	-0.998575	-0.051420	0.014262
528	1049208004													-0.476815	0.718914	0.343383	-0.033294	0.694255	0.718959	-0.061392	0.716579	-0.694799	-0.997558	-0.067271	0.018764
529	1049224671													-0.376393	0.633160	0.375830	-0.042131	0.697532	0.715314	-0.076212	0.711621	-0.698418	-0.996201	-0.083941	0.023179
530	1049241338													-0.377833	0.505519	0.441526	-0.051887	0.701363	0.710913	-0.091628	0.705525	-0.702736	-0.994441	-0.101603	0.027657
531	1049258005													-0.456090	0.321885	0.520523	-0.062552	0.705560	0.705884	-0.107912	0.698342	-0.707583	-0.992191	-0.120434	0.032455
532	1049274672													-0.463447	0.467755	0.717241	-0.074505	0.710100	0.700148	-0.125068	0.689902	-0.713017	-0.989347	-0.140689	0.037410
533	1049291339													-0.667461	0.668879	0.991099	-0.087863	0.714124	0.694483	-0.143077	0.680903	-0.718262	-0.985804	-0.162473	0.042348
534	1049308006													-0.836533	0.831681	1.327231	-0.102347	0.716934	0.689587	-0.161840	0.671990	-0.722660	-0.981495	-0.185565	0.047252
535	1049324673													-0.815220	0.308557	1.487452	-0.117774	0.718562	0.685418	-0.181373	0.663046	-0.726274	-0.976337	-0.209853	0.052238
536	1049341340													-0.868310	-0.123543	1.479275	-0.134522	0.719589	0.681245	-0.201729	0.653210	-0.729810	-0.970159	-0.235603	0.057290
537	1049358007													-1.083437	-0.630539	1.555979	-0.152803	0.720152	0.676781	-0.223148	0.641994	-0.733518	-0.962734	-0.263106	0.062602
538	1049374674													-1.804973	-0.896986	1.783464	-0.172799	0.720385	0.671704	-0.245787	0.628851	-0.737655	-0.953797	-0.292562	0.068397
539	1049391341													-1.871114	-0.933365	3.713750	-0.196004	0.716787	0.669177	-0.269861	0.616636	-0.739551	-0.942739	-0.325540	0.072569
540	1049408008													-2.733886	-3.917924	4.580790	-0.219658	0.711350	0.667631	-0.296213	0.603406	-0.740377	-0.929520	-0.360391	0.078169
541	1049424675													-4.107107	-4.682034	3.275036	-0.244102	0.706054	0.664757	-0.324005	0.586720	-0.742146	-0.914021	-0.396544	0.085545
542	1049441342													-5.186703	-5.573797	3.597184	-0.270803	0.700474	0.660305	-0.353010	0.565887	-0.745088	-0.895572	-0.434866	0.094030
543	1049458009													-5.350869	-9.567009	4.026538	-0.297932	0.693717	0.655738	-0.382912	0.542397	-0.747786	-0.874423	-0.473880	0.104035
544	1049474676													-5.843650	-12.294824	0.775447	-0.325445	0.690385	0.646107	-0.410978	0.512110	-0.754215	-0.851577	-0.510991	0.117069
545	1049491343													-4.793793	-11.044133	-1.820842	-0.356136	0.691751	0.628210	-0.433433	0.473302	-0.766890	-0.827830	-0.545404	0.131268
546	1049508010													1.111535	-5.642587	-0.663962	-0.389335	0.692978	0.606794	-0.450641	0.431242	-0.781635	-0.803331	-0.577764	0.144387
547	1049524677													3.894016	-0.888935	3.968582	-0.419616	0.686647	0.593665	-0.470860	0.394491	-0.789093	-0.776024	-0.610650	0.157780
548	1049541344													1.521584	-5.001606	3.955658	-0.435108	0.673719	0.597314	-0.495337	0.374875	-0.783651	-0.751879	-0.636845	0.170607
549	1049558011													-2.124461	-8.183258	-1.770066	-0.435973	0.663963	0.607521	-0.513277	0.371052	-0.773865	-0.739239	-0.649210	0.179028
550	1049574678													-2.007670	-7.048946	-5.792860	-0.437758	0.662031	0.608344	-0.520361	0.365225	-0.771903	-0.733207	-0.654466	0.184615
551	1049591345													-1.900260	-4.106860	-5.729372	-0.444117	0.663003	0.602651	-0.518741	0.358149	-0.776297	-0.730526	-0.657386	0.184867
552	1049608012													-0.993985	-2.850971	-4.776233	-0.448253	0.664865	0.597514	-0.512049	0.356921	-0.781290	-0.732718	-0.656172	0.180452
553	1049624679													0.167676	-2.116035	-4.146133	-0.444405	0.668716	0.596090	-0.502840	0.364483	-0.783775	-0.741388	-0.648051	0.174279
554	1049641346													0.513163	-1.984298	-4.505197	-0.431499	0.673984	0.599628	-0.491980	0.381330	-0.782651	-0.756151	-0.632718	0.167043
555	1049658013													0.559824	-2.264761	-5.023840	-0.411226	0.680480	0.606497	-0.477046	0.406305	-0.779322	-0.776737	-0.609805	0.157537
556	1049674680													0.629262	-2.316381	-4.770189	-0.387328	0.687673	0.614071	-0.455914	0.436052	-0.775887	-0.801324	-0.580486	0.144625
557	1049691347													0.771360	-2.100266	-4.027858	-0.360802	0.694863	0.622083	-0.428602	0.468869	-0.772309	-0.828325	-0.545277	0.128651
558	1049708014													0.018938	-2.497528	-3.575045	-0.331118	0.702712	0.629728	-0.394563	0.503116	-0.768892	-0.857135	-0.503061	0.110673
559	1049724681													-0.910907	-3.221043	-3.405622	-0.299959	0.713071	0.633683	-0.351887	0.534719	-0.768278	-0.886679	-0.453437	0.090526
560	1049741348													-1.214325	-3.009854	-2.338172	-0.269384	0.727017	0.631568	-0.300416	0.559647	-0.772364	-0.914977	-0.397796	0.067648
561	1049758015													-1.441909	-2.249582	-0.690341	-0.239016	0.744842	0.622962	-0.241385	0.575840	-0.781115	-0.940534	-0.337073	0.042158
562	1049774682													-1.400607	-1.029904	1.207533	-0.205975	0.764062	0.611379	-0.177343	0.585284	-0.791197	-0.962353	-0.271391	0.014947
563	1049791349													-0.721311	0.029531	2.593198	-0.168587	0.781828	0.600269	-0.110573	0.590142	-0.799692	-0.979465	-0.201191	-0.013041
564	1049808016													-0.203695	1.083008	3.319555	-0.127800	0.797582	0.589517	-0.041756	0.589537	-0.806661	-0.990921	-0.127707	-0.042039
565	1049824683													0.051801	2.568040	4.204916	-0.083943	0.809917	0.580506	0.027960	0.584247	-0.811094	-0.996078	-0.051855	-0.071689
566	1049841350													0.622564	3.934747	5.436302	-0.036179	0.816474	0.576247	0.097327	0.576762	-0.811093	-0.994595	0.026740	-0.100332
567	1049858017													0.996813	5.360205	5.938421	0.013486	0.817634	0.575580	0.166146	0.565798	-0.807631	-0.986009	0.106522	-0.128216
568	1049874684													0.919497	8.146518	6.068170	0.060864	0.814947	0.576331	0.233208	0.549810	-0.802074	-0.970520	0.183223	-0.156588
569	1049891351													1.407596	11.547181	5.949511	0.103118	0.807131	0.581297	0.297089	0.532744	-0.792415	-0.949265	0.254410	-0.184855
570	1049908018													3.050740	15.063143	3.209246	0.136995	0.792010	0.594939	0.356535	0.520925	-0.775577	-0.924184	0.318366	-0.211016
571	1049924685													6.087419	15.234532	-0.958642	0.160513	0.767679	0.620406	0.408101	0.520697	-0.749886	-0.898715	0.373555	-0.229711
572	1049941352													6.834793	14.125057	-6.636051	0.174571	0.741993	0.647280	0.445873	0.526545	-0.723843	-0.877908	0.414966	-0.238915
573	1049958019													5.396051	14.878840	-7.592529	0.178874	0.720683	0.669791	0.465417	0.537804	-0.702961	-0.866828	0.437474	-0.239219
574	1049974686													4.168063	15.262321	-7.827175	0.175472	0.705721	0.686416	0.467899	0.553671	-0.688854	-0.866187	0.442048	-0.233053
575	1049991353													3.280765	14.924384	-7.547000	0.163186	0.694719	0.700525	0.457708	0.575699	-0.677550	-0.873998	0.431203	-0.224033
576	1050008020													2.581713	13.214203	-5.298703	0.143276	0.685161	0.714161	0.438644	0.602895	-0.666415	-0.887166	0.408744	-0.214161
577	1050024687													0.528958	9.861322	-2.080785	0.120590	0.676520	0.726484	0.412897	0.631336	-0.656454	-0.902759	0.379124	-0.203200
578	1050041354													-10.638148	-14.434870	16.915804	0.100726	0.642013	0.760049	0.403893	0.671767	-0.620967	-0.909244	0.369526	-0.191640
579	1050058021													-5.512485	-5.685961	3.549365	0.108657	0.657888	0.745236	0.391308	0.660844	-0.640440	-0.913823	0.361205	-0.185632
580	1050074688													-0.235010	13.832741	-5.063120	0.092753	0.688166	0.719600	0.369361	0.647369	-0.666698	-0.924645	0.327631	-0.194136
581	1050091355													10.109085	17.870693	6.288290	0.063979	0.674867	0.735160	0.330764	0.680690	-0.653649	-0.941542	0.284984	-0.179672
582	1050108022													4.699694	-0.594580	4.551652	0.062195	0.666245	0.743135	0.297897	0.698245	-0.650931	-0.952570	0.261862	-0.155045
583	1050124689													-6.221485	6.608971	-5.616840	0.048827	0.658190	0.751267	0.269037	0.715697	-0.644513	-0.961891	0.233588	-0.142132
584	1050141356													1.402958	2.710474	0.276800	0.038045	0.640181	0.767282	0.244060	0.738631	-0.628378	-0.969014	0.211169	-0.128141
585	1050158023													-0.632019	2.763086	-0.613243	0.032940	0.633543	0.773006	0.221045	0.749655	-0.623824	-0.974707	0.191418	-0.115348
586	1050174690													-1.315027	1.950087	0.425929	0.029512	0.631223	0.775040	0.202473	0.755528	-0.623042	-0.978843	0.175312	-0.105508
587	1050191357													0.490944	0.512275	0.076668	0.026968	0.633891	0.772952	0.185684	0.756600	-0.626959	-0.982239	0.160433	-0.097299
588	1050208024													0.537056	2.200129	-0.843513	0.023211	0.639922	0.768089	0.170564	0.754497	-0.633752	-0.985073	0.145719	-0.091635
589	1050224691													0.367383	3.711742	0.010334	0.019396	0.640232	0.767936	0.157763	0.756499	-0.634681	-0.987286	0.133463	-0.086332
590	1050241358													-0.149556	2.446600	0.902662	0.016235	0.637744	0.770077	0.146935	0.760295	-0.632741	-0.989013	0.123424	-0.081364
591	1050258025													-0.090904	2.468686	0.459299	0.013769	0.632798	0.774194	0.137439	0.765721	-0.628317	-0.990415	0.115055	-0.076428
592	1050274692													-0.131969	1.167035	-0.343023	0.011135	0.628172	0.777995	0.128811	0.770659	-0.624093	-0.991607	0.107164	-0.072334
593	1050291359													-0.201256	0.953220	-0.270320	0.008647	0.624233	0.781190	0.120621	0.774864	-0.620513	-0.992661	0.099593	-0.068596
594	1050308026													0.084610	0.879616	-0.145621	0.006469	0.621013	0.783774	0.112697	0.778344	-0.617641	-0.993608	0.092325	-0.064952
595	1050324693													0.166641	1.076444	-0.138082	0.003744	0.618448	0.785817	0.105668	0.781178	-0.615300	-0.994394	0.085339	-0.062426
596	1050341360													0.175288	0.798343	-0.107073	0.000553	0.616176	0.787608	0.099230	0.783687	-0.613178	-0.995064	0.078493	-0.060710
597	1050358027													-0.145123	0.517350	-0.066889	-0.003128	0.614812	0.788668	0.092991	0.785433	-0.611921	-0.995662	0.071425	-0.059628
598	1050374694													-0.422965	0.563274	0.098498	-0.007051	0.614901	0.788573	0.086652	0.786002	-0.612122	-0.996214	0.064015	-0.058825
599	1050391361													-0.490174	0.893993	0.080651	-0.010982	0.615834	0.787799	0.080279	0.785846	-0.613189	-0.996712	0.056510	-0.058069
600	1050408028													-0.495544	1.052340	0.030533	-0.014616	0.616870	0.786929	0.073859	0.785529	-0.614401	-0.997162	0.049142	-0.057042
601	1050424695													-0.522147	1.113715	0.202452	-0.017929	0.617552	0.786326	0.067302	0.785414	-0.615301	-0.997572	0.041890	-0.055644
602	1050441362													-0.485746	0.985997	0.343938	-0.021162	0.617505	0.786283	0.060356	0.785813	-0.615512	-0.997953	0.034431	-0.053900
603	1050458029													-0.284388	0.372409	0.152182	-0.024234	0.617544	0.786163	0.052845	0.786086	-0.615855	-0.998309	0.026620	-0.051684
604	1050474696													-0.411279	0.169710	-0.253297	-0.027769	0.618824	0.785039	0.044582	0.785327	-0.617474	-0.998620	0.017852	-0.049396
605	1050491363													-0.439856	0.507139	-0.305412	-0.031794	0.620221	0.783783	0.035182	0.784388	-0.619272	-0.998875	0.007886	-0.046760
606	1050508030													-0.269777	0.603775	-0.185418	-0.036462	0.620670	0.783224	0.024413	0.784064	-0.620199	-0.999037	-0.003493	-0.043741
607	1050524697													0.108059	0.670627	-0.171708	-0.042204	0.619867	0.783571	0.012526	0.784536	-0.619956	-0.999030	-0.016350	-0.040875
608	1050541364													0.197020	0.497975	-0.175061	-0.049350	0.617615	0.784931	-0.000365	0.785877	-0.618383	-0.998781	-0.030803	-0.038558
609	1050558031													-0.065673	0.037142	0.040391	-0.057926	0.614923	0.786457	-0.014414	0.787183	-0.616552	-0.998217	-0.047051	-0.036735
610	1050574698													-0.104188	-0.475128	0.276330	-0.068216	0.613025	0.787113	-0.029906	0.787340	-0.615794	-0.997222	-0.065547	-0.035376
611	1050591365													-0.105158	-0.780040	0.122800	-0.080571	0.613148	0.785848	-0.047066	0.785192	-0.617462	-0.995637	-0.086736	-0.034405
612	1050608032													0.016730	-0.646834	-0.015792	-0.095251	0.614869	0.782856	-0.066010	0.780799	-0.621285	-0.993262	-0.110854	-0.033785
613	1050624699													0.243794	-0.196955	0.295391	-0.112102	0.616916	0.779005	-0.086347	0.774933	-0.626117	-0.989938	-0.137454	-0.033602
614	1050641366													0.208997	0.068691	0.832832	-0.130901	0.618698	0.774647	-0.107450	0.767913	-0.631477	-0.985555	-0.165897	-0.034041
615	1050658033													-0.034647	-0.281022	1.545629	-0.151016	0.620293	0.769696	-0.128879	0.759625	-0.637463	-0.980094	-0.195465	-0.034772
616	1050674700													-0.553910	-0.048056	2.593182	-0.172437	0.622162	0.763662	-0.150340	0.749569	-0.644627	-0.973480	-0.225967	-0.035717
617	1050691367													-0.728088	-0.801129	4.982173	-0.196734	0.620957	0.758754	-0.172830	0.739796	-0.650255	-0.965104	-0.259063	-0.038223
618	1050708034													-1.850820	-1.886210	3.730310	-0.220800	0.619894	0.752980	-0.195670	0.728183	-0.656858	-0.955490	-0.292370	-0.039488
619	1050724701													-2.779745	-1.427808	3.406721	-0.246996	0.617556	0.746738	-0.220335	0.714636	-0.663888	-0.943634	-0.328511	-0.040443
620	1050741368													-3.030039	-2.167073	4.980198	-0.274816	0.610348	0.742934	-0.247287	0.701826	-0.668049	-0.929153	-0.367309	-0.041942
621	1050758035													-3.125096	-5.132365	5.336152	-0.302491	0.598467	0.741846	-0.277062	0.689493	-0.669205	-0.911996	-0.407966	-0.042753
622	1050774702													-2.506314	-7.712159	3.831158	-0.329924	0.585924	0.740164	-0.308582	0.674055	-0.671139	-0.892148	-0.449826	-0.041581
623	1050791369													-2.245261	-10.635556	1.563814	-0.356941	0.576084	0.735337	-0.339151	0.653555	-0.676641	-0.870385	-0.490911	-0.037901
624	1050808036													-1.694509	-11.125404	-0.663446	-0.384855	0.570246	0.725745	-0.365340	0.627968	-0.687155	-0.847592	-0.529599	-0.033343
625	1050824703													-0.110003	-8.543114	-1.909380	-0.415977	0.568242	0.709975	-0.384170	0.597830	-0.703571	-0.824243	-0.565420	-0.030382
626	1050841370													2.865833	-3.060464	0.701197	-0.444617	0.563975	0.695879	-0.400164	0.569988	-0.717623	-0.801364	-0.597533	-0.027744
627	1050858037													3.305106	-1.314830	2.581314	-0.464557	0.551603	0.692764	-0.422834	0.549192	-0.720832	-0.778073	-0.627792	-0.021894
628	1050874704													0.660406	-4.953034	0.734971	-0.476269	0.538789	0.694892	-0.442250	0.536267	-0.718911	-0.759988	-0.649711	-0.017128
629	1050891371													-0.088177	-7.019382	-2.284327	-0.475082	0.527968	0.703951	-0.457139	0.535483	-0.710128	-0.751879	-0.659173	-0.013043
630	1050908038													-0.304998	-5.961770	-4.663229	-0.471064	0.524014	0.709583	-0.464379	0.536608	-0.704559	-0.749967	-0.661408	-0.009435
631	1050924705													-0.367645	-4.198816	-4.711017	-0.466322	0.522571	0.713767	-0.466208	0.540541	-0.700333	-0.751794	-0.659344	-0.008439
632	1050941372													0.075132	-3.718297	-4.945096	-0.458337	0.523543	0.718213	-0.464023	0.548254	-0.695773	-0.758030	-0.652166	-0.008348
633	1050958039													0.342781	-2.853157	-4.952453	-0.446311	0.527830	0.722635	-0.457227	0.559658	-0.691178	-0.769253	-0.638889	-0.008444
634	1050974706													0.527003	-2.136805	-4.378629	-0.429811	0.534118	0.727998	-0.445214	0.576074	-0.685510	-0.785523	-0.618754	-0.009805
635	1050991373													0.782483	-1.959153	-3.714557	-0.407211	0.540368	0.736330	-0.429007	0.598562	-0.676518	-0.806308	-0.591376	-0.011919
636	1051008040													0.810135	-2.414605	-3.750761	-0.378043	0.546782	0.747070	-0.407357	0.626396	-0.664597	-0.831351	-0.555570	-0.014069
637	1051024707													0.248110	-2.376895	-3.958158	-0.346469	0.554804	0.756407	-0.377889	0.655482	-0.653868	-0.858580	-0.512383	-0.017450
638	1051041374													-0.457917	-2.438532	-3.393295	-0.314487	0.564506	0.763171	-0.340541	0.683357	-0.645798	-0.886076	-0.462986	-0.022670
639	1051058041													-1.002523	-2.758721	-2.734170	-0.282003	0.577472	0.766159	-0.294897	0.707739	-0.641983	-0.912968	-0.406979	-0.029289
640	1051074708													-1.692601	-2.715171	-1.986079	-0.250103	0.596455	0.762686	-0.240470	0.724773	-0.645661	-0.937882	-0.344885	-0.037839
641	1051091375													-2.265703	-1.769497	-0.388734	-0.218044	0.620962	0.752903	-0.179247	0.732860	-0.656343	-0.959337	-0.278067	-0.048490
642	1051108042													-2.121504	-0.281919	1.834718	-0.182834	0.646625	0.740573	-0.114426	0.734155	-0.669271	-0.976462	-0.207106	-0.060238
643	1051124709													-1.632260	1.084030	3.262168	-0.143034	0.668589	0.729746	-0.048410	0.731719	-0.679885	-0.988533	-0.132574	-0.072295
644	1051141376													-1.171108	2.095664	3.934859	-0.100314	0.686488	0.720188	0.018042	0.724975	-0.688538	-0.994792	-0.056077	-0.085110
645	1051158043													-0.834244	3.998188	4.571381	-0.055745	0.699543	0.712413	0.083828	0.714282	-0.694819	-0.994920	0.020987	-0.098459
646	1051174710													-0.600371	5.436704	5.150180	-0.009468	0.704964	0.709180	0.147974	0.702391	-0.696240	-0.988946	0.098348	-0.110967
647	1051191377													-0.809926	6.564180	4.769510	0.036289	0.705633	0.707648	0.211187	0.686707	-0.695582	-0.976772	0.174688	-0.124100
648	1051208044													-0.948841	8.917338	4.583873	0.077840	0.702141	0.707771	0.271994	0.668037	-0.692637	-0.959146	0.246424	-0.138978
649	1051224711													-0.932972	11.127141	4.207362	0.113659	0.693475	0.711459	0.329203	0.649358	-0.685536	-0.937394	0.312132	-0.154489
650	1051241378													0.632350	13.183555	1.912612	0.143331	0.679518	0.719522	0.380734	0.633216	-0.673854	-0.913509	0.370530	-0.167956
