// Start Time: Unknown
// Update Rate: 100.0Hz
//Filter Profile: human (46.1)
// Option Flags: AHS Disabled ICC Disabled
// Firmware Version: 4.0.2
PacketCounter	SampleTimeFine	Year	Month	Day	Second	UTC_Nano	UTC_Year	UTC_Month	UTC_Day	UTC_Hour	UTC_Minute	UTC_Second	UTC_Valid	Acc_X	Acc_Y	Acc_Z	Mat[1][1]	Mat[1][2]	Mat[1][3]	Mat[2][1]	Mat[2][2]	Mat[2][3]	Mat[3][1]	Mat[3][2]	Mat[3][3]
1	1091575518													-0.266172	0.196876	0.018690	0.147951	-0.026108	-0.988650	0.069419	-0.996912	0.036715	-0.986555	-0.074063	-0.145682
2	1091592185													-0.264262	0.161544	0.017246	0.147814	-0.026110	-0.988670	0.069402	-0.996913	0.036704	-0.986577	-0.074041	-0.145546
3	1091608852													-0.247530	0.170230	0.053827	0.147735	-0.026074	-0.988683	0.069384	-0.996916	0.036659	-0.986590	-0.074015	-0.145470
4	1091625519													-0.252841	0.176082	0.034701	0.147674	-0.026022	-0.988694	0.069396	-0.996917	0.036603	-0.986598	-0.074017	-0.145413
5	1091642186													-0.247073	0.175996	0.016431	0.147467	-0.025886	-0.988728	0.069410	-0.996922	0.036453	-0.986628	-0.074003	-0.145217
6	1091658853													-0.246868	0.195882	-0.000548	0.147388	-0.025747	-0.988744	0.069422	-0.996926	0.036308	-0.986639	-0.073992	-0.145148
7	1091675520													-0.268989	0.213893	-0.020472	0.147367	-0.025627	-0.988750	0.069451	-0.996929	0.036190	-0.986640	-0.074003	-0.145135
8	1091692187													-0.309280	0.226889	0.003115	0.147438	-0.025499	-0.988743	0.069502	-0.996929	0.036074	-0.986626	-0.074038	-0.145213
9	1091708854													-0.287017	0.201015	0.019205	0.147314	-0.025462	-0.988762	0.069542	-0.996928	0.036033	-0.986642	-0.074068	-0.145091
10	1091725521													-0.271801	0.183818	0.046857	0.147103	-0.025496	-0.988792	0.069576	-0.996925	0.036056	-0.986671	-0.074101	-0.144877
11	1091742188													-0.273064	0.175561	0.032898	0.147187	-0.025494	-0.988780	0.069613	-0.996922	0.036066	-0.986656	-0.074140	-0.144959
12	1091758855													-0.283017	0.188613	0.011867	0.147352	-0.025460	-0.988756	0.069607	-0.996923	0.036044	-0.986632	-0.074135	-0.145127
13	1091775522													-0.287288	0.197560	-0.010661	0.147292	-0.025346	-0.988768	0.069618	-0.996927	0.035925	-0.986640	-0.074127	-0.145075
14	1091792189													-0.267326	0.198843	-0.001500	0.147061	-0.025183	-0.988807	0.069649	-0.996931	0.035748	-0.986672	-0.074127	-0.144855
15	1091808856													-0.294622	0.198502	0.036204	0.147036	-0.025001	-0.988815	0.069732	-0.996931	0.035576	-0.986670	-0.074183	-0.144841
16	1091825523													-0.286930	0.192808	0.010138	0.147298	-0.024865	-0.988780	0.069785	-0.996931	0.035466	-0.986627	-0.074226	-0.145110
17	1091842190													-0.327979	0.188781	-0.011907	0.147354	-0.024788	-0.988773	0.069836	-0.996930	0.035400	-0.986615	-0.074269	-0.145170
18	1091858857													-0.287688	0.193789	0.016443	0.147122	-0.024694	-0.988810	0.069885	-0.996930	0.035295	-0.986646	-0.074296	-0.144945
19	1091875524													-0.287656	0.194618	0.075566	0.147153	-0.024543	-0.988809	0.069963	-0.996930	0.035157	-0.986636	-0.074353	-0.144984
20	1091892191													-0.278104	0.174022	0.031448	0.147420	-0.024339	-0.988775	0.070051	-0.996930	0.034984	-0.986590	-0.074422	-0.145262
21	1091908858													-0.273591	0.155067	0.028581	0.147531	-0.024170	-0.988762	0.070161	-0.996927	0.034838	-0.986566	-0.074512	-0.145382
22	1091925525													-0.272967	0.160376	0.037625	0.147727	-0.023948	-0.988738	0.070252	-0.996928	0.034643	-0.986530	-0.074579	-0.145591
23	1091942192													-0.265712	0.184174	0.005863	0.147917	-0.023654	-0.988717	0.070308	-0.996933	0.034369	-0.986498	-0.074598	-0.145800
24	1091958859													-0.264667	0.198067	-0.008382	0.147882	-0.023340	-0.988730	0.070330	-0.996942	0.034053	-0.986501	-0.074574	-0.145788
25	1091975526													-0.236874	0.215085	-0.024554	0.147949	-0.023071	-0.988726	0.070323	-0.996952	0.033785	-0.986492	-0.074529	-0.145875
26	1091992193													-0.237022	0.206376	-0.023431	0.148008	-0.022878	-0.988721	0.070321	-0.996958	0.033596	-0.986483	-0.074501	-0.145949
27	1092008860													-0.334051	0.189044	0.010908	0.148063	-0.022683	-0.988718	0.070376	-0.996961	0.033411	-0.986471	-0.074529	-0.146017
28	1092025527													-0.322910	0.209858	0.004915	0.148103	-0.022558	-0.988715	0.070431	-0.996961	0.033296	-0.986461	-0.074567	-0.146064
29	1092042194													-0.312836	0.223916	-0.019631	0.147782	-0.022472	-0.988765	0.070448	-0.996963	0.033188	-0.986508	-0.074561	-0.145751
30	1092058861													-0.245360	0.206118	0.000526	0.147448	-0.022417	-0.988816	0.070435	-0.996967	0.033105	-0.986559	-0.074529	-0.145422
31	1092075528													-0.296349	0.209312	0.036581	0.147346	-0.022416	-0.988831	0.070390	-0.996971	0.033089	-0.986577	-0.074479	-0.145322
32	1092092195													-0.306780	0.211107	0.050547	0.147276	-0.022459	-0.988840	0.070316	-0.996975	0.033117	-0.986593	-0.074408	-0.145251
33	1092108862													-0.336039	0.201270	0.062884	0.147201	-0.022581	-0.988849	0.070241	-0.996977	0.033223	-0.986609	-0.074348	-0.145170
34	1092125529													-0.350572	0.207494	0.070401	0.147242	-0.022791	-0.988838	0.070135	-0.996977	0.033422	-0.986611	-0.074273	-0.145198
35	1092142196													-0.384089	0.189286	0.052338	0.147608	-0.023031	-0.988778	0.069987	-0.996979	0.033670	-0.986567	-0.074172	-0.145550
36	1092158863													-0.477970	0.192950	0.062035	0.148272	-0.023308	-0.988672	0.069781	-0.996984	0.033969	-0.986482	-0.074027	-0.146198
37	1092175530													-0.557437	0.191859	0.065121	0.148882	-0.023695	-0.988571	0.069556	-0.996986	0.034372	-0.986406	-0.073878	-0.146785
38	1092192197													-0.588964	0.186128	0.107935	0.149115	-0.024009	-0.988528	0.069300	-0.996993	0.034668	-0.986389	-0.073674	-0.147002
39	1092208864													-0.527982	0.205226	0.185187	0.148726	-0.023957	-0.988588	0.069063	-0.997014	0.034551	-0.986464	-0.073414	-0.146627
40	1092225531													-0.490740	0.250889	0.399350	0.148234	-0.023543	-0.988672	0.068863	-0.997044	0.034068	-0.986552	-0.073133	-0.146175
41	1092242198													-0.543696	0.273839	0.558808	0.149805	-0.023081	-0.988446	0.068750	-0.997064	0.033702	-0.986322	-0.073005	-0.147779
42	1092258865													-0.671989	0.190980	0.498377	0.152899	-0.022630	-0.987983	0.068875	-0.997063	0.033497	-0.985839	-0.073169	-0.150891
43	1092275532													-0.746076	0.212621	0.496272	0.154982	-0.021976	-0.987673	0.069303	-0.997048	0.033059	-0.985483	-0.073572	-0.153002
44	1092292199													-0.675869	0.184726	0.779680	0.156849	-0.021227	-0.987394	0.070048	-0.997012	0.032561	-0.985135	-0.074272	-0.154893
45	1092308866													-0.645586	0.133034	1.075777	0.160701	-0.019695	-0.986807	0.071236	-0.996962	0.031498	-0.984429	-0.075358	-0.158810
46	1092325533													-0.849389	0.141284	1.023708	0.167860	-0.017309	-0.985659	0.072473	-0.996924	0.029850	-0.983143	-0.076444	-0.166089
47	1092342200													-1.048282	0.147068	0.651410	0.177104	-0.014751	-0.984082	0.073324	-0.996911	0.028139	-0.981457	-0.077141	-0.175475
48	1092358867													-1.142417	0.202269	0.298100	0.186586	-0.012240	-0.982362	0.073552	-0.996942	0.026392	-0.979681	-0.077180	-0.185116
49	1092375534													-1.183893	0.306100	-0.005085	0.196042	-0.009914	-0.980545	0.073004	-0.997026	0.024677	-0.977874	-0.076421	-0.194736
50	1092392201													-1.302518	0.352781	-0.291760	0.206592	-0.007998	-0.978394	0.071859	-0.997142	0.023324	-0.975785	-0.075125	-0.205427
51	1092408868													-1.422207	0.418612	-0.405822	0.217584	-0.006439	-0.976020	0.070688	-0.997248	0.022337	-0.973478	-0.073854	-0.216530
52	1092425535													-1.496880	0.442065	-0.565929	0.228239	-0.005817	-0.973588	0.069710	-0.997318	0.022301	-0.971106	-0.072959	-0.227221
53	1092442202													-1.531851	0.384533	-0.578290	0.236318	-0.005967	-0.971657	0.068974	-0.997356	0.022900	-0.969225	-0.072431	-0.235282
54	1092458869													-1.311810	0.365078	-0.292054	0.242298	-0.006471	-0.970180	0.068533	-0.997366	0.023769	-0.967778	-0.072249	-0.241217
55	1092475536													-0.955115	0.422943	-0.055874	0.248706	-0.006959	-0.968554	0.068297	-0.997359	0.024703	-0.966168	-0.072293	-0.247574
56	1092492203													-0.888320	0.298305	0.236656	0.256499	-0.007460	-0.966516	0.068074	-0.997348	0.025764	-0.964144	-0.072403	-0.255311
57	1092508870													-1.042920	0.143719	0.343992	0.265903	-0.007662	-0.963969	0.067770	-0.997346	0.026621	-0.961615	-0.072406	-0.264678
58	1092525537													-1.140363	0.132975	0.278130	0.275826	-0.007578	-0.961178	0.067129	-0.997375	0.027128	-0.958861	-0.072006	-0.274593
59	1092542204													-1.113468	0.144392	-0.031980	0.287009	-0.007446	-0.957899	0.065976	-0.997442	0.027521	-0.955653	-0.071098	-0.285783
60	1092558871													-0.929892	0.233243	-0.362349	0.297824	-0.007565	-0.954591	0.064123	-0.997552	0.027912	-0.952465	-0.069524	-0.296610
61	1092575538													-0.877786	0.245083	-0.327821	0.309090	-0.008287	-0.950997	0.061751	-0.997677	0.028763	-0.949026	-0.067615	-0.307860
62	1092592205													-0.935721	0.216614	-0.344048	0.321186	-0.009031	-0.946973	0.059558	-0.997782	0.029716	-0.945141	-0.065945	-0.319936
63	1092608872													-0.765890	0.170141	-0.631331	0.333187	-0.010330	-0.942804	0.057534	-0.997854	0.031266	-0.941104	-0.064661	-0.331878
64	1092625539													-0.623253	0.025696	-0.720782	0.345187	-0.012104	-0.938456	0.055768	-0.997886	0.033383	-0.936876	-0.063859	-0.343782
65	1092642206													-0.517511	-0.090263	-0.697067	0.356526	-0.014096	-0.934179	0.054287	-0.997884	0.035776	-0.932707	-0.063469	-0.355006
66	1092658873													-0.126480	-0.128865	-0.408304	0.366932	-0.015805	-0.930113	0.052870	-0.997885	0.037814	-0.928744	-0.063051	-0.365321
67	1092675540													0.517031	-0.016570	-0.335893	0.377746	-0.017523	-0.925743	0.051022	-0.997908	0.039708	-0.924502	-0.062233	-0.376062
68	1092692207													0.817350	0.142559	-0.066358	0.390413	-0.018718	-0.920450	0.048487	-0.997988	0.040861	-0.919362	-0.060582	-0.388720
69	1092708874													0.658760	0.153658	-0.087548	0.407374	-0.019649	-0.913050	0.045134	-0.998114	0.041617	-0.912146	-0.058163	-0.405718
70	1092725541													0.323972	0.336077	-0.085748	0.423870	-0.020367	-0.905494	0.041595	-0.998255	0.041925	-0.904767	-0.055434	-0.422283
71	1092742208													0.535295	0.313696	-0.095605	0.438308	-0.021602	-0.898565	0.038512	-0.998342	0.042786	-0.897999	-0.053359	-0.436749
72	1092758875													0.987556	0.380492	-0.490273	0.454226	-0.022874	-0.890593	0.036457	-0.998356	0.044236	-0.890140	-0.052562	-0.452645
73	1092775542													0.884325	0.524767	-0.688572	0.471607	-0.024091	-0.881480	0.035240	-0.998313	0.046138	-0.881104	-0.052823	-0.469963
74	1092792209													0.602811	0.590663	-0.436776	0.489238	-0.025416	-0.871780	0.034206	-0.998247	0.048299	-0.871479	-0.053450	-0.487511
75	1092808876													0.161251	0.443762	-0.949242	0.508210	-0.026282	-0.860832	0.034065	-0.998139	0.050584	-0.860559	-0.055032	-0.506369
76	1092825543													-0.178876	0.175772	-1.126983	0.521432	-0.026652	-0.852876	0.035160	-0.997992	0.052683	-0.852568	-0.057458	-0.519448
77	1092842210													0.275133	-0.142236	-1.150154	0.534174	-0.028325	-0.844900	0.036373	-0.997743	0.056445	-0.844592	-0.060883	-0.531938
78	1092858877													0.450182	0.116771	-1.123228	0.549355	-0.029246	-0.835077	0.038044	-0.997475	0.059961	-0.834723	-0.064709	-0.546855
79	1092875544													0.476131	0.087461	-0.810588	0.565303	-0.030022	-0.824337	0.039838	-0.997178	0.063636	-0.823921	-0.068813	-0.562511
80	1092892211													0.207031	0.330856	-0.918552	0.581088	-0.030725	-0.813261	0.041867	-0.996835	0.067575	-0.812763	-0.073315	-0.577962
81	1092908878													0.092162	0.504799	-0.747243	0.593134	-0.030799	-0.804515	0.044027	-0.996532	0.070609	-0.803899	-0.077301	-0.589721
82	1092925545													0.238821	0.715046	-0.979943	0.604872	-0.031605	-0.795695	0.044972	-0.996262	0.073758	-0.795052	-0.080398	-0.601190
83	1092942212													-0.051933	0.504542	-1.155435	0.617401	-0.033780	-0.785923	0.044596	-0.995968	0.077841	-0.785384	-0.083108	-0.613405
84	1092958879													-0.462731	0.016969	-0.956323	0.628244	-0.037401	-0.777117	0.043278	-0.995617	0.082904	-0.776812	-0.085717	-0.623872
85	1092975546													-0.308718	-0.670328	-1.073053	0.637363	-0.042363	-0.769398	0.041605	-0.995139	0.089257	-0.769440	-0.088900	-0.632502
86	1092992213													-0.149808	-0.508076	-1.421347	0.645253	-0.047726	-0.762477	0.039940	-0.994575	0.096053	-0.762924	-0.092431	-0.639846
87	1093008880													-0.340643	-0.064165	-1.463557	0.656119	-0.052077	-0.752858	0.038424	-0.994017	0.102245	-0.753679	-0.096013	-0.650192
88	1093025547													-0.977656	0.917310	-0.881369	0.668874	-0.054760	-0.741356	0.037382	-0.993544	0.107115	-0.742436	-0.099360	-0.662508
89	1093042214													-0.903679	1.698891	0.154469	0.674579	-0.057437	-0.735964	0.036110	-0.993208	0.110611	-0.737319	-0.101192	-0.667923
90	1093058881													0.310117	1.958401	0.816250	0.677151	-0.061123	-0.733301	0.033855	-0.992901	0.114025	-0.735064	-0.102038	-0.670275
91	1093075548													1.041748	1.583453	0.260910	0.682811	-0.065697	-0.727635	0.031136	-0.992427	0.118823	-0.729931	-0.103789	-0.675595
92	1093092215													0.905353	0.751337	-0.209634	0.692233	-0.072867	-0.717986	0.026267	-0.991686	0.125969	-0.721196	-0.106059	-0.684564
93	1093108882													-0.259606	-0.032166	0.023140	0.707319	-0.080102	-0.702341	0.020186	-0.990865	0.133337	-0.706606	-0.108489	-0.699241
94	1093125549													-1.146332	-0.620166	0.306171	0.717057	-0.086216	-0.691661	0.015017	-0.990179	0.138996	-0.696852	-0.110055	-0.708721
95	1093142216													-0.657143	-0.730079	0.086277	0.718247	-0.090663	-0.689856	0.011787	-0.989746	0.142348	-0.695689	-0.110372	-0.709814
96	1093158883													0.203620	-0.441395	0.004884	0.719791	-0.092790	-0.687961	0.010451	-0.989466	0.144391	-0.694112	-0.111121	-0.711239
97	1093175550													0.448587	-0.334715	-0.532474	0.727834	-0.093859	-0.679300	0.009209	-0.989162	0.146540	-0.685692	-0.112913	-0.719081
98	1093192217													-0.222251	-0.024189	-0.384398	0.740351	-0.095150	-0.665452	0.007240	-0.988746	0.149432	-0.672182	-0.115450	-0.731330
99	1093208884													-1.223501	0.266639	0.005484	0.751479	-0.096997	-0.652588	0.004820	-0.988300	0.152446	-0.659740	-0.117706	-0.742219
100	1093225551													-1.500977	0.657050	0.145749	0.757059	-0.099088	-0.645789	0.002914	-0.987910	0.154998	-0.653340	-0.119225	-0.747618
101	1093242218													-0.949499	1.011343	-0.147579	0.757682	-0.101881	-0.644623	0.001168	-0.987526	0.157449	-0.652623	-0.120050	-0.748112
102	1093258885													-0.185343	0.888306	-0.373802	0.757048	-0.106310	-0.644653	-0.001300	-0.986917	0.161226	-0.653358	-0.121218	-0.747281
103	1093275552													-0.030674	0.329897	-0.183795	0.758337	-0.112757	-0.642036	-0.005340	-0.985967	0.166852	-0.651841	-0.123102	-0.748298
104	1093292219													-0.881465	-0.077332	-0.072521	0.765253	-0.117958	-0.632830	-0.009015	-0.984935	0.172688	-0.643666	-0.126445	-0.754788
105	1093308886													-1.688712	0.027684	-0.067875	0.771059	-0.122542	-0.624861	-0.012104	-0.983951	0.178028	-0.636648	-0.129707	-0.760168
106	1093325553													-1.777632	0.185075	-0.413909	0.770603	-0.126398	-0.624656	-0.013647	-0.983183	0.182110	-0.637169	-0.131810	-0.759369
107	1093342220													-1.176970	0.322762	-0.694840	0.765255	-0.130567	-0.630347	-0.014484	-0.982459	0.185917	-0.643564	-0.133144	-0.753723
108	1093358887													-0.615172	0.133156	-0.743417	0.759833	-0.135108	-0.635924	-0.015503	-0.981654	0.190038	-0.649934	-0.134538	-0.747988
109	1093375554													-0.298858	-0.089819	-0.627812	0.754668	-0.139956	-0.641005	-0.016844	-0.980795	0.194314	-0.655890	-0.135846	-0.742532
110	1093392221													-0.520149	0.022270	-0.622641	0.751090	-0.143240	-0.644474	-0.017636	-0.980184	0.197300	-0.659965	-0.136824	-0.738732
111	1093408888													-0.846390	0.298871	-0.595348	0.748729	-0.145845	-0.646633	-0.018307	-0.979673	0.199763	-0.662624	-0.137731	-0.736179
112	1093425555													-1.238700	0.431700	-0.959535	0.745625	-0.148039	-0.649713	-0.018645	-0.979264	0.201731	-0.666104	-0.138302	-0.732924
113	1093442222													-1.271180	0.468023	-1.200204	0.740254	-0.150799	-0.655197	-0.018998	-0.978824	0.203820	-0.672059	-0.138431	-0.727444
114	1093458889													-0.955918	0.227901	-1.205262	0.730764	-0.154288	-0.664965	-0.019286	-0.978400	0.205818	-0.682357	-0.137580	-0.717956
115	1093475556													-0.753261	0.159277	-1.123135	0.719413	-0.157839	-0.676411	-0.019165	-0.977978	0.207825	-0.694318	-0.136549	-0.706595
116	1093492223													-0.578774	0.122997	-0.885629	0.707380	-0.161447	-0.688149	-0.018795	-0.977517	0.210015	-0.706583	-0.135627	-0.694511
117	1093508890													-0.601824	0.183953	-0.831926	0.694265	-0.164484	-0.700672	-0.017866	-0.977174	0.211690	-0.719498	-0.134451	-0.681356
118	1093525557													-0.598597	0.243460	-0.914842	0.679972	-0.167801	-0.713779	-0.016848	-0.976780	0.213580	-0.733044	-0.133203	-0.667011
119	1093542224													-0.406710	0.189331	-1.047665	0.662798	-0.172156	-0.728740	-0.016439	-0.976323	0.215693	-0.748618	-0.130981	-0.649935
120	1093558891													-0.180383	0.182399	-1.186564	0.640775	-0.177454	-0.746939	-0.016714	-0.975914	0.217514	-0.767547	-0.126894	-0.628307
121	1093575558													-0.042924	0.077526	-1.051333	0.615471	-0.183695	-0.766454	-0.017725	-0.975440	0.219550	-0.787960	-0.121541	-0.603611
122	1093592225													0.109873	-0.195666	-0.203304	0.586951	-0.190013	-0.787009	-0.018882	-0.975018	0.221322	-0.809402	-0.115045	-0.575876
123	1093608892													0.251037	-0.449215	1.433779	0.554929	-0.195067	-0.808705	-0.019719	-0.974931	0.221631	-0.831664	-0.107043	-0.544864
124	1093625559													0.385590	-0.420025	3.882873	0.518785	-0.199448	-0.831314	-0.020392	-0.975015	0.221199	-0.854662	-0.097802	-0.509890
125	1093642226													0.523343	-0.477537	7.259748	0.490521	-0.202243	-0.847636	-0.019980	-0.975051	0.221081	-0.871200	-0.091509	-0.482324
126	1093658893													0.712935	-0.721832	9.211512	0.474734	-0.200933	-0.856886	-0.017772	-0.975581	0.218920	-0.879950	-0.088700	-0.466713
127	1093675560													0.587207	0.210503	8.950157	0.465420	-0.197891	-0.862684	-0.015646	-0.976372	0.215529	-0.884952	-0.086814	-0.457519
128	1093692227													0.659801	0.045627	5.844703	0.438872	-0.198224	-0.876412	-0.016289	-0.976958	0.212808	-0.898402	-0.079120	-0.431988
129	1093708894													0.237141	0.328247	2.485155	0.393253	-0.197269	-0.898018	-0.016938	-0.978100	0.207444	-0.919274	-0.066367	-0.387982
130	1093725561													0.701055	-0.004070	0.481895	0.333419	-0.197277	-0.921908	-0.018190	-0.979026	0.202921	-0.942603	-0.050888	-0.330015
131	1093742228													1.954909	-0.590580	-0.414811	0.269210	-0.189737	-0.944206	-0.017295	-0.981196	0.192239	-0.962926	-0.035423	-0.267430
132	1093758895													3.591046	-0.309682	-0.403565	0.217256	-0.182553	-0.958892	-0.016756	-0.982909	0.183329	-0.975971	-0.023762	-0.216602
133	1093775562													4.929892	-0.862084	0.228498	0.197935	-0.179946	-0.963557	-0.015269	-0.983452	0.180525	-0.980096	-0.021019	-0.197407
134	1093792229													4.043401	-0.710593	0.228284	0.210701	-0.180263	-0.960786	-0.011133	-0.983230	0.182032	-0.977487	-0.027657	-0.209174
135	1093808896													0.705663	-0.352561	-1.307070	0.252661	-0.174546	-0.951681	-0.003771	-0.983764	0.179429	-0.967547	-0.041746	-0.249217
136	1093825563													-1.209158	0.248938	-4.445192	0.237035	-0.180332	-0.954618	0.002695	-0.982495	0.186267	-0.971497	-0.046724	-0.232400
137	1093842230													-2.334647	1.004115	-0.988190	0.184872	-0.189229	-0.964373	0.010896	-0.980833	0.194548	-0.982702	-0.046474	-0.179267
138	1093858897													2.690626	-0.125585	-0.090631	0.114529	-0.214110	-0.970072	0.017281	-0.975921	0.217441	-0.993270	-0.041667	-0.108071
139	1093875564													2.825928	-1.985448	1.085122	0.131223	-0.210168	-0.968819	0.024999	-0.976257	0.215168	-0.991038	-0.052454	-0.122853
140	1093892231													-1.430377	0.816242	-0.888138	0.122285	-0.219944	-0.967818	0.031418	-0.973790	0.225271	-0.991998	-0.057954	-0.112170
141	1093908898													-1.655581	0.145772	0.910386	0.130529	-0.217999	-0.967181	0.037130	-0.973768	0.224494	-0.990749	-0.065214	-0.119011
142	1093925565													0.085960	-0.443294	2.560854	0.135444	-0.214364	-0.967317	0.042605	-0.974151	0.221844	-0.989869	-0.071260	-0.122810
143	1093942232													0.331579	-0.299214	2.692586	0.139541	-0.208569	-0.968002	0.047423	-0.975037	0.216921	-0.989080	-0.076175	-0.126166
144	1093958899													0.110460	0.487801	2.989990	0.143153	-0.201819	-0.968905	0.051462	-0.976146	0.210930	-0.988362	-0.080057	-0.129352
145	1093975566													-0.937143	0.834464	1.307281	0.143828	-0.196355	-0.969927	0.053257	-0.977161	0.205717	-0.988169	-0.081243	-0.130086
146	1093992233													-1.019856	0.694097	-0.158838	0.140688	-0.190763	-0.971502	0.054026	-0.978320	0.199926	-0.988579	-0.080614	-0.127331
147	1094008900													-0.637792	0.449927	-0.263046	0.137452	-0.182879	-0.973480	0.054937	-0.979887	0.191840	-0.988984	-0.079849	-0.124640
148	1094025567													-0.364651	0.228305	-0.063554	0.134963	-0.174906	-0.975291	0.056199	-0.981361	0.183771	-0.989256	-0.079613	-0.122618
149	1094042234													-0.235017	0.243836	-0.188334	0.131854	-0.166383	-0.977206	0.057656	-0.982857	0.175125	-0.989591	-0.079433	-0.120000
150	1094058901													-0.392043	0.636322	-0.104148	0.127724	-0.158180	-0.979115	0.059029	-0.984238	0.166707	-0.990052	-0.079088	-0.116374
151	1094075568													-0.274118	0.192899	-0.424220	0.123132	-0.149808	-0.981018	0.060660	-0.985556	0.158115	-0.990535	-0.078977	-0.112266
152	1094092235													-0.136104	-0.379201	-0.030362	0.119092	-0.142052	-0.982669	0.062368	-0.986688	0.150191	-0.990922	-0.079174	-0.108647
153	1094108902													-0.177411	-0.165800	-0.104851	0.115042	-0.135050	-0.984138	0.064383	-0.987619	0.143053	-0.991272	-0.079819	-0.104923
154	1094125569													-0.136421	0.615342	-0.354548	0.110254	-0.128778	-0.985525	0.066066	-0.988428	0.136548	-0.991705	-0.080165	-0.100471
155	1094142236													-0.195251	0.943905	-0.392494	0.104889	-0.123352	-0.986804	0.067238	-0.989128	0.130789	-0.992208	-0.080069	-0.095454
156	1094158903													-0.303787	0.717862	-0.215079	0.098356	-0.118417	-0.988081	0.067630	-0.989804	0.125356	-0.992851	-0.079153	-0.089345
157	1094175570													-0.306820	0.090608	-0.495751	0.092702	-0.114985	-0.989032	0.066735	-0.990358	0.121395	-0.993455	-0.077257	-0.084135
158	1094192237													-0.310982	-0.086842	-0.794714	0.086052	-0.112265	-0.989945	0.065214	-0.990865	0.118038	-0.994154	-0.074716	-0.077945
159	1094208904													-0.473516	-0.250301	-0.622788	0.079356	-0.111269	-0.990617	0.062632	-0.991231	0.116355	-0.994877	-0.071277	-0.071691
160	1094225571													-0.360118	-0.153340	-0.342029	0.071658	-0.111694	-0.991156	0.059140	-0.991486	0.116007	-0.995674	-0.066930	-0.064442
161	1094242238													-0.188501	-0.058767	-0.012082	0.063873	-0.112306	-0.991619	0.055224	-0.991727	0.115876	-0.996429	-0.062162	-0.057143
162	1094258905													-0.177840	0.106520	-0.188562	0.055190	-0.113257	-0.992032	0.050791	-0.991941	0.116073	-0.997183	-0.056792	-0.048993
163	1094275572													-0.257447	0.258733	-0.170899	0.045978	-0.114633	-0.992343	0.047329	-0.992028	0.116790	-0.997821	-0.052336	-0.040186
164	1094292239													-0.130014	0.238507	0.414173	0.037998	-0.115960	-0.992527	0.044663	-0.992054	0.117615	-0.998279	-0.048798	-0.032517
165	1094308906													-0.279018	0.366441	0.597644	0.031653	-0.116339	-0.992705	0.044122	-0.992072	0.117672	-0.998525	-0.047525	-0.026269
166	1094325573													-0.308004	0.424531	-0.171522	0.026281	-0.117534	-0.992721	0.043667	-0.991981	0.118602	-0.998700	-0.046466	-0.020938
167	1094342240													-0.236533	0.482369	0.299086	0.018881	-0.118508	-0.992774	0.043188	-0.991927	0.119228	-0.998889	-0.045127	-0.013611
168	1094358907													-0.153811	0.406041	0.259675	0.012539	-0.119546	-0.992750	0.042763	-0.991855	0.119978	-0.999007	-0.043957	-0.007325
169	1094375574													-0.094523	0.396646	0.347625	0.006136	-0.120248	-0.992725	0.042164	-0.991830	0.120400	-0.999092	-0.042596	-0.001016
170	1094392241													-0.103111	0.349192	0.025805	-0.000744	-0.120502	-0.992713	0.041290	-0.991870	0.120369	-0.999147	-0.040900	0.005713
171	1094408908													-0.056948	0.346165	0.117304	-0.007164	-0.120933	-0.992635	0.040586	-0.991878	0.120548	-0.999150	-0.039423	0.012014
172	1094425575													-0.036923	0.338385	0.045423	-0.013530	-0.121530	-0.992496	0.040251	-0.991848	0.120902	-0.999098	-0.038313	0.018312
173	1094442242													-0.082674	0.355820	0.002915	-0.019633	-0.122212	-0.992310	0.040205	-0.991795	0.121353	-0.998999	-0.037513	0.024385
174	1094458909													-0.078237	0.428360	-0.108959	-0.025560	-0.122837	-0.992098	0.040253	-0.991743	0.121757	-0.998863	-0.036822	0.030293
175	1094475576													-0.030062	0.420227	-0.102129	-0.031847	-0.123748	-0.991802	0.040427	-0.991653	0.122432	-0.998675	-0.036196	0.036584
176	1094492243													-0.072168	0.477080	-0.118995	-0.038069	-0.125304	-0.991388	0.040663	-0.991479	0.123754	-0.998447	-0.035602	0.042839
177	1094508910													-0.078083	0.419287	0.058830	-0.044327	-0.126801	-0.990937	0.040671	-0.991319	0.125030	-0.998189	-0.034760	0.049099
178	1094525577													-0.094475	0.404276	-0.130719	-0.049954	-0.128420	-0.990461	0.040866	-0.991131	0.126445	-0.997915	-0.034160	0.054759
179	1094542244													-0.203363	0.394926	-0.001527	-0.055815	-0.129554	-0.990000	0.041035	-0.991006	0.127372	-0.997598	-0.033515	0.060629
180	1094558911													-0.153170	0.351642	-0.100122	-0.060970	-0.130930	-0.989515	0.041012	-0.990851	0.128580	-0.997297	-0.032742	0.065782
181	1094575578													-0.118619	0.334922	-0.078399	-0.065863	-0.132280	-0.989022	0.041218	-0.990689	0.129758	-0.996977	-0.032220	0.070702
182	1094592245													-0.131244	0.267343	-0.124104	-0.071279	-0.133691	-0.988456	0.041589	-0.990514	0.130970	-0.996589	-0.031774	0.076163
183	1094608912													-0.054860	0.262860	-0.107128	-0.075751	-0.135411	-0.987890	0.042008	-0.990290	0.132518	-0.996241	-0.031460	0.080704
184	1094625579													0.015469	0.280619	0.097931	-0.080118	-0.137195	-0.987299	0.042250	-0.990060	0.134151	-0.995890	-0.030965	0.085118
185	1094642246													0.056007	0.262138	-0.283885	-0.084509	-0.139013	-0.986678	0.042599	-0.989819	0.135807	-0.995512	-0.030554	0.089571
186	1094658913													-0.023229	0.220713	0.085008	-0.088679	-0.141072	-0.986020	0.042552	-0.989552	0.137751	-0.995151	-0.029742	0.093756
187	1094675580													-0.131640	0.150632	0.191970	-0.092208	-0.143079	-0.985407	0.041746	-0.989308	0.139739	-0.994864	-0.028252	0.097195
188	1094692247													-0.120531	0.113997	0.032988	-0.095453	-0.144670	-0.984865	0.040596	-0.989125	0.141361	-0.994606	-0.026488	0.100288
189	1094708914													-0.059113	0.074663	-0.100051	-0.098751	-0.145720	-0.984385	0.039784	-0.989007	0.142413	-0.994317	-0.025099	0.103463
190	1094725581													-0.142218	0.195328	0.198510	-0.101892	-0.147017	-0.983872	0.038564	-0.988860	0.143769	-0.994048	-0.023293	0.106427
191	1094742248													-0.068403	0.282645	0.174109	-0.104809	-0.148196	-0.983389	0.037302	-0.988725	0.145025	-0.993793	-0.021483	0.109155
192	1094758915													-0.009870	0.293517	0.018525	-0.107752	-0.149249	-0.982911	0.036389	-0.988597	0.146123	-0.993512	-0.020022	0.111954
193	1094775582													0.064589	0.287644	0.052787	-0.110339	-0.150229	-0.982475	0.035743	-0.988471	0.147132	-0.993251	-0.018882	0.114436
194	1094792249													0.068108	0.259515	0.051348	-0.112709	-0.151335	-0.982036	0.035076	-0.988324	0.148278	-0.993009	-0.017734	0.116701
195	1094808916													0.084189	0.144991	-0.089032	-0.115335	-0.152196	-0.981598	0.034562	-0.988209	0.149160	-0.992725	-0.016723	0.119235
196	1094825583													-0.044524	0.135167	0.049504	-0.117094	-0.153407	-0.981201	0.033664	-0.988043	0.150459	-0.992550	-0.015413	0.120858
197	1094842250													0.060663	0.164540	-0.080628	-0.118705	-0.154486	-0.980838	0.032449	-0.987898	0.151671	-0.992399	-0.013823	0.122281
198	1094858917													0.003103	0.257813	0.067011	-0.120391	-0.155598	-0.980457	0.031840	-0.987737	0.152844	-0.992216	-0.012817	0.123869
199	1094875584													-0.014829	0.211662	0.184970	-0.122185	-0.156752	-0.980051	0.031441	-0.987565	0.154035	-0.992009	-0.011993	0.125594
200	1094892251													0.054336	0.252539	-0.010499	-0.123717	-0.158142	-0.979635	0.030707	-0.987357	0.155510	-0.991842	-0.010843	0.127009
201	1094908918													0.037413	0.243856	0.096596	-0.124798	-0.159367	-0.979300	0.029934	-0.987171	0.156834	-0.991731	-0.009742	0.127968
202	1094925585													0.077099	0.148027	0.085246	-0.125799	-0.160450	-0.978994	0.029289	-0.987005	0.158000	-0.991623	-0.008798	0.128864
203	1094942252													-0.010476	0.223155	0.212983	-0.126042	-0.161784	-0.978744	0.028817	-0.986793	0.159404	-0.991606	-0.008113	0.129039
204	1094958919													-0.055690	0.182827	0.061902	-0.126830	-0.162937	-0.978451	0.028181	-0.986610	0.160643	-0.991524	-0.007199	0.129724
205	1094975586													0.092362	0.117580	0.215374	-0.126901	-0.164227	-0.978226	0.027704	-0.986401	0.162005	-0.991528	-0.006542	0.129725
206	1094992253													-0.014946	0.130688	-0.001325	-0.126884	-0.165355	-0.978038	0.027388	-0.986215	0.163185	-0.991539	-0.006081	0.129663
207	1095008920													0.021240	0.106481	0.055789	-0.126577	-0.166464	-0.977890	0.027135	-0.986031	0.164338	-0.991586	-0.005734	0.129326
208	1095025587													-0.032936	0.095533	-0.021081	-0.126097	-0.167575	-0.977762	0.026901	-0.985844	0.165491	-0.991653	-0.005435	0.128820
209	1095042254													-0.045818	0.069555	-0.001146	-0.125575	-0.168677	-0.977640	0.026681	-0.985658	0.166633	-0.991725	-0.005159	0.128274
210	1095058921													-0.055137	0.088918	-0.019002	-0.125134	-0.169708	-0.977518	0.026500	-0.985482	0.167698	-0.991786	-0.004919	0.127815
211	1095075588													-0.078127	0.090796	-0.016191	-0.124610	-0.170742	-0.977404	0.026404	-0.985304	0.168756	-0.991854	-0.004779	0.127287
212	1095092255													-0.054180	0.122675	-0.023013	-0.123989	-0.171825	-0.977294	0.026346	-0.985116	0.169857	-0.991934	-0.004687	0.126670
213	1095108922													-0.077885	0.123618	-0.017958	-0.123293	-0.172843	-0.977202	0.026250	-0.984939	0.170899	-0.992023	-0.004581	0.125973
214	1095125589													-0.090231	0.116858	-0.047613	-0.122482	-0.173904	-0.977116	0.026158	-0.984752	0.171984	-0.992126	-0.004494	0.125164
215	1095142256													-0.096046	0.115095	-0.054214	-0.121587	-0.174965	-0.977038	0.026064	-0.984565	0.173069	-0.992239	-0.004423	0.124271
216	1095158923													-0.093382	0.104283	-0.054660	-0.120666	-0.176025	-0.976962	0.026018	-0.984376	0.174148	-0.992352	-0.004405	0.123361
217	1095175590													-0.094585	0.107147	-0.036485	-0.119692	-0.177070	-0.976893	0.026007	-0.984188	0.175206	-0.992470	-0.004436	0.122405
218	1095192257													-0.100054	0.138391	-0.031991	-0.118673	-0.178177	-0.976816	0.026013	-0.983988	0.176325	-0.992593	-0.004485	0.121408
219	1095208924													-0.116657	0.131528	-0.014674	-0.117628	-0.179275	-0.976742	0.026087	-0.983788	0.177426	-0.992715	-0.004610	0.120398
220	1095225591													-0.103468	0.153588	-0.039625	-0.116551	-0.180423	-0.976659	0.026202	-0.983578	0.178574	-0.992839	-0.004778	0.119364
221	1095242258													-0.134101	0.155513	-0.030330	-0.115386	-0.181566	-0.976586	0.026331	-0.983366	0.179716	-0.992972	-0.004978	0.118248
222	1095258925													-0.146181	0.161562	-0.051884	-0.114190	-0.182740	-0.976507	0.026518	-0.983147	0.180882	-0.993105	-0.005240	0.117111
223	1095275592													-0.119484	0.141724	-0.014462	-0.112956	-0.183900	-0.976433	0.026693	-0.982930	0.182035	-0.993241	-0.005502	0.115936
224	1095292259													-0.107476	0.144970	-0.010092	-0.111657	-0.184974	-0.976380	0.026842	-0.982727	0.183106	-0.993384	-0.005763	0.114694
225	1095308926													-0.063275	0.145083	0.006182	-0.110206	-0.185835	-0.976381	0.026994	-0.982562	0.183965	-0.993542	-0.006083	0.113300
226	1095325593													-0.100110	0.156291	-0.041772	-0.108622	-0.186599	-0.976413	0.027170	-0.982415	0.184723	-0.993712	-0.006464	0.111781
227	1095342260													-0.141274	0.179443	-0.031477	-0.106931	-0.187481	-0.976430	0.027334	-0.982244	0.185604	-0.993891	-0.006843	0.110157
228	1095358927													-0.141943	0.160627	-0.026100	-0.105196	-0.188527	-0.976418	0.027533	-0.982041	0.186647	-0.994070	-0.007249	0.108498
229	1095375594													-0.115330	0.129397	-0.032401	-0.103490	-0.189612	-0.976390	0.027783	-0.981829	0.187723	-0.994242	-0.007700	0.106878
230	1095392261													-0.140789	0.143801	-0.055395	-0.101552	-0.190510	-0.976419	0.028014	-0.981651	0.188617	-0.994436	-0.008199	0.105026
231	1095408928													-0.122645	0.135887	-0.053693	-0.099516	-0.191299	-0.976474	0.028283	-0.981493	0.189400	-0.994634	-0.008769	0.103085
232	1095425595													-0.128641	0.177949	-0.039205	-0.097474	-0.192031	-0.976536	0.028561	-0.981344	0.190125	-0.994828	-0.009358	0.101140
233	1095442262													-0.112301	0.250812	-0.009010	-0.095439	-0.192728	-0.976600	0.028828	-0.981202	0.190819	-0.995018	-0.009942	0.099201
234	1095458929													-0.118499	0.286591	-0.036623	-0.093507	-0.193452	-0.976644	0.029039	-0.981054	0.191545	-0.995195	-0.010450	0.097353
235	1095475596													-0.103100	0.262674	-0.114760	-0.091550	-0.194477	-0.976625	0.029264	-0.980846	0.192574	-0.995370	-0.010950	0.095488
236	1095492263													-0.112448	0.203782	-0.129155	-0.089479	-0.195683	-0.976577	0.029492	-0.980600	0.193787	-0.995552	-0.011461	0.093515
237	1095508930													-0.167317	0.169437	-0.085673	-0.087216	-0.196855	-0.976546	0.029715	-0.980359	0.194970	-0.995746	-0.012014	0.091353
238	1095525597													-0.204725	0.132544	-0.019856	-0.085003	-0.197846	-0.976540	0.029870	-0.980153	0.195978	-0.995933	-0.012511	0.089226
239	1095542264													-0.235580	0.106673	0.011311	-0.082931	-0.198760	-0.976533	0.030050	-0.979962	0.196906	-0.996102	-0.013015	0.087242
240	1095558931													-0.233453	0.112103	-0.121990	-0.080978	-0.199652	-0.976515	0.030290	-0.979773	0.197806	-0.996256	-0.013561	0.085387
241	1095575598													-0.216654	0.140939	-0.148756	-0.079042	-0.200426	-0.976515	0.030469	-0.979608	0.198594	-0.996406	-0.014056	0.083537
242	1095592265													-0.267936	0.201359	-0.160354	-0.077131	-0.201102	-0.976529	0.030635	-0.979462	0.199287	-0.996550	-0.014545	0.081707
243	1095608932													-0.283013	0.233360	-0.114999	-0.075334	-0.201831	-0.976519	0.030756	-0.979306	0.200034	-0.996684	-0.014964	0.079982
244	1095625599													-0.323557	0.231476	-0.125270	-0.073692	-0.202642	-0.976476	0.030865	-0.979133	0.200864	-0.996803	-0.015337	0.078409
245	1095642266													-0.303636	0.198732	-0.146311	-0.072148	-0.203488	-0.976416	0.030962	-0.978952	0.201729	-0.996913	-0.015678	0.076930
246	1095658933													-0.332568	0.168918	-0.165318	-0.070690	-0.204280	-0.976357	0.031062	-0.978782	0.202538	-0.997015	-0.016010	0.075535
247	1095675600													-0.350817	0.152984	-0.168587	-0.069329	-0.204945	-0.976315	0.031189	-0.978637	0.203218	-0.997106	-0.016361	0.074240
248	1095692267													-0.339017	0.168174	-0.142197	-0.068111	-0.205564	-0.976271	0.031317	-0.978501	0.203849	-0.997186	-0.016689	0.073084
249	1095708934													-0.340457	0.191394	-0.149029	-0.066980	-0.206248	-0.976205	0.031457	-0.978352	0.204543	-0.997258	-0.017008	0.072018
250	1095725601													-0.320409	0.194557	-0.119828	-0.065908	-0.206964	-0.976126	0.031609	-0.978195	0.205268	-0.997325	-0.017326	0.071013
251	1095742268													-0.292323	0.201532	-0.110903	-0.064886	-0.207569	-0.976066	0.031725	-0.978062	0.205885	-0.997388	-0.017606	0.070048
252	1095758935													-0.263922	0.178764	-0.112874	-0.063943	-0.208144	-0.976006	0.031835	-0.977935	0.206470	-0.997446	-0.017868	0.069158
253	1095775602													-0.237521	0.192103	-0.083924	-0.062994	-0.208765	-0.975935	0.031963	-0.977797	0.207101	-0.997502	-0.018148	0.068268
254	1095792269													-0.186902	0.201236	-0.049039	-0.061995	-0.209372	-0.975869	0.032061	-0.977663	0.207720	-0.997561	-0.018410	0.067323
255	1095808936													-0.203757	0.206034	-0.042007	-0.060941	-0.209878	-0.975826	0.032107	-0.977550	0.208244	-0.997625	-0.018640	0.066311
256	1095825603													-0.181320	0.145848	-0.060048	-0.059914	-0.210363	-0.975786	0.032106	-0.977442	0.208748	-0.997687	-0.018822	0.065317
257	1095842270													-0.178818	0.150776	-0.049643	-0.058870	-0.210746	-0.975767	0.032105	-0.977356	0.209152	-0.997749	-0.019014	0.064303
258	1095858937													-0.145386	0.114581	-0.029906	-0.057830	-0.211044	-0.975764	0.032061	-0.977289	0.209473	-0.997811	-0.019170	0.063283
259	1095875604													-0.079027	0.168222	-0.040573	-0.056834	-0.211116	-0.975807	0.032054	-0.977269	0.209566	-0.997869	-0.019368	0.062309
260	1095892271													-0.014548	0.207021	0.012498	-0.055680	-0.211222	-0.975851	0.032075	-0.977241	0.209693	-0.997933	-0.019625	0.061188
261	1095908938													-0.005818	0.170669	0.034781	-0.054335	-0.211341	-0.975901	0.032059	-0.977210	0.209840	-0.998008	-0.019884	0.059872
262	1095925605													0.009665	0.153388	0.035868	-0.052860	-0.211267	-0.975998	0.032003	-0.977221	0.209798	-0.998089	-0.020144	0.058417
263	1095942272													-0.036244	0.146869	0.033313	-0.051274	-0.211160	-0.976106	0.031918	-0.977239	0.209729	-0.998174	-0.020401	0.056847
264	1095958939													-0.031955	0.142569	0.051896	-0.049596	-0.211077	-0.976210	0.031841	-0.977251	0.209684	-0.998262	-0.020684	0.055189
265	1095975606													-0.031486	0.140004	0.050298	-0.047837	-0.210973	-0.976321	0.031814	-0.977266	0.209619	-0.998348	-0.021033	0.053461
266	1095992273													-0.018826	0.139751	0.052573	-0.045967	-0.210816	-0.976445	0.031737	-0.977292	0.209505	-0.998439	-0.021360	0.051614
267	1096008940													-0.051988	0.125165	0.023902	-0.043957	-0.210650	-0.976573	0.031674	-0.977320	0.209385	-0.998531	-0.021728	0.049632
268	1096025607													-0.021192	0.126135	0.009560	-0.041742	-0.210460	-0.976711	0.031630	-0.977351	0.209246	-0.998628	-0.022159	0.047454
269	1096042274													-0.053230	0.144873	0.009574	-0.039360	-0.210154	-0.976876	0.031609	-0.977406	0.208994	-0.998725	-0.022652	0.045113
270	1096058941													-0.091651	0.160705	0.002021	-0.036941	-0.209854	-0.977035	0.031581	-0.977459	0.208751	-0.998818	-0.023145	0.042736
271	1096075608													-0.115558	0.157160	-0.018312	-0.034481	-0.209573	-0.977185	0.031536	-0.977507	0.208530	-0.998908	-0.023627	0.040314
272	1096092275													-0.125670	0.143267	-0.028746	-0.031924	-0.209248	-0.977341	0.031518	-0.977564	0.208266	-0.998993	-0.024155	0.037802
273	1096108942													-0.142748	0.159482	-0.041331	-0.029295	-0.208985	-0.977480	0.031496	-0.977607	0.208069	-0.999074	-0.024691	0.035221
274	1096125609													-0.128490	0.161451	0.015028	-0.026582	-0.208779	-0.977602	0.031504	-0.977636	0.207929	-0.999150	-0.025271	0.032565
275	1096142276													-0.120920	0.212792	-0.040157	-0.023732	-0.208539	-0.977726	0.031563	-0.977670	0.207761	-0.999220	-0.025929	0.029784
276	1096158943													-0.027604	0.189292	0.060265	-0.020849	-0.208366	-0.977829	0.031630	-0.977689	0.207661	-0.999282	-0.026599	0.026974
277	1096175610													-0.142415	0.157472	-0.093080	-0.017940	-0.208043	-0.977955	0.031618	-0.977741	0.207417	-0.999339	-0.027200	0.024119
278	1096192277													-0.104858	0.146365	0.073080	-0.014780	-0.207748	-0.978071	0.031653	-0.977784	0.207209	-0.999390	-0.027897	0.021028
279	1096208944													-0.103040	0.125782	-0.048566	-0.011836	-0.207486	-0.978166	0.031689	-0.977821	0.207029	-0.999428	-0.028546	0.018149
280	1096225611													-0.103997	0.121118	0.029640	-0.008604	-0.207228	-0.978255	0.031774	-0.977854	0.206864	-0.999458	-0.029303	0.014997
281	1096242278													-0.131381	0.177107	0.002060	-0.005322	-0.207080	-0.978310	0.031925	-0.977860	0.206811	-0.999476	-0.030132	0.011816
282	1096258945													-0.109860	0.201018	-0.017391	-0.001996	-0.206900	-0.978360	0.032067	-0.977872	0.206732	-0.999484	-0.030960	0.008586
283	1096275612													-0.131152	0.243903	-0.049738	0.001341	-0.206829	-0.978376	0.032258	-0.977859	0.206764	-0.999479	-0.031838	0.005361
284	1096292279													-0.140190	0.299371	-0.024443	0.004767	-0.206978	-0.978334	0.032496	-0.977796	0.207023	-0.999461	-0.032778	0.002065
285	1096308946													-0.104703	0.272240	-0.123753	0.008143	-0.207248	-0.978255	0.032733	-0.977708	0.207404	-0.999431	-0.033710	-0.001177
286	1096325613													-0.150466	0.207277	0.023389	0.011747	-0.207506	-0.978163	0.032923	-0.977620	0.207786	-0.999389	-0.034645	-0.004652
287	1096342280													-0.177906	0.152368	-0.067945	0.015217	-0.207767	-0.978060	0.033102	-0.977532	0.208170	-0.999336	-0.035544	-0.007997
288	1096358947													-0.156374	0.119582	-0.025119	0.018773	-0.207939	-0.977962	0.033329	-0.977460	0.208472	-0.999268	-0.036508	-0.011420
289	1096375614													-0.165894	0.123104	-0.046086	0.022248	-0.208141	-0.977846	0.033585	-0.977380	0.208806	-0.999188	-0.037486	-0.014754
290	1096392281													-0.123167	0.199310	-0.015404	0.025720	-0.208395	-0.977707	0.033829	-0.977288	0.209196	-0.999097	-0.038456	-0.018086
291	1096408948													-0.228888	0.214760	-0.043513	0.029165	-0.208589	-0.977568	0.034015	-0.977211	0.209527	-0.998996	-0.039363	-0.021405
292	1096425615													-0.224837	0.253425	-0.054759	0.032532	-0.208664	-0.977446	0.034122	-0.977162	0.209739	-0.998888	-0.040176	-0.024669
293	1096442282													-0.227512	0.268537	-0.062225	0.035820	-0.208740	-0.977315	0.034193	-0.977114	0.209951	-0.998773	-0.040938	-0.027863
294	1096458949													-0.191578	0.269972	-0.057226	0.039103	-0.208852	-0.977165	0.034184	-0.977061	0.210198	-0.998650	-0.041623	-0.031066
295	1096475616													-0.168519	0.217235	-0.027830	0.042323	-0.208836	-0.977034	0.034122	-0.977038	0.210315	-0.998521	-0.042240	-0.034225
296	1096492283													-0.174716	0.158941	-0.050868	0.045685	-0.208856	-0.976879	0.034082	-0.977004	0.210477	-0.998374	-0.042910	-0.037516
297	1096508950													-0.201304	0.128082	0.018231	0.049134	-0.208746	-0.976735	0.034081	-0.976996	0.210516	-0.998211	-0.043631	-0.040890
298	1096525617													-0.189965	0.066727	-0.006060	0.052504	-0.208545	-0.976602	0.034099	-0.977007	0.210465	-0.998038	-0.044352	-0.044186
299	1096542284													-0.158797	0.030985	-0.035782	0.055977	-0.208156	-0.976493	0.034133	-0.977055	0.210233	-0.997848	-0.045098	-0.047588
300	1096558951													-0.139912	0.028809	-0.005054	0.059537	-0.207524	-0.976416	0.034236	-0.977152	0.209768	-0.997639	-0.045917	-0.051072
301	1096575618													-0.127621	0.041765	-0.023728	0.063050	-0.206847	-0.976340	0.034408	-0.977254	0.209262	-0.997417	-0.046788	-0.054499
302	1096592285													-0.111655	0.108555	-0.010424	0.066590	-0.206115	-0.976259	0.034601	-0.977366	0.208709	-0.997180	-0.047678	-0.057951
303	1096608952													-0.057591	0.178407	-0.026989	0.070295	-0.205404	-0.976149	0.034770	-0.977471	0.208186	-0.996920	-0.048576	-0.061569
304	1096625619													-0.040243	0.219796	-0.070167	0.074340	-0.204804	-0.975976	0.034915	-0.977549	0.207794	-0.996622	-0.049523	-0.065520
305	1096642286													-0.049826	0.215012	-0.154133	0.078536	-0.204454	-0.975721	0.035056	-0.977572	0.207663	-0.996295	-0.050514	-0.069607
306	1096658953													-0.122947	0.221312	-0.103725	0.082916	-0.204249	-0.975401	0.035220	-0.977559	0.207695	-0.995934	-0.051575	-0.073861
307	1096675620													-0.189825	0.223270	-0.128277	0.087180	-0.204212	-0.975037	0.035390	-0.977511	0.207894	-0.995564	-0.052631	-0.077993
308	1096692287													-0.253954	0.146485	-0.081868	0.091273	-0.204433	-0.974616	0.035711	-0.977400	0.208361	-0.995185	-0.053822	-0.081910
309	1096708954													-0.278987	0.137868	-0.111302	0.095056	-0.205014	-0.974132	0.036093	-0.977210	0.209184	-0.994817	-0.055044	-0.085490
310	1096725621													-0.265506	0.149226	-0.046619	0.098738	-0.205791	-0.973602	0.036566	-0.976972	0.210212	-0.994441	-0.056357	-0.088940
311	1096742288													-0.324286	0.175654	-0.060316	0.102215	-0.206538	-0.973085	0.037027	-0.976741	0.211204	-0.994073	-0.057618	-0.092191
312	1096758955													-0.293802	0.063648	-0.077941	0.105439	-0.206981	-0.972647	0.037438	-0.976579	0.211876	-0.993721	-0.058754	-0.095221
313	1096775622													-0.349383	0.021215	-0.049827	0.108421	-0.207284	-0.972254	0.037884	-0.976448	0.212403	-0.993383	-0.059861	-0.098015
314	1096792289													-0.438222	0.031591	-0.102715	0.111104	-0.207505	-0.971904	0.038345	-0.976336	0.212834	-0.993069	-0.060914	-0.100518
315	1096808956													-0.460946	0.076573	-0.088373	0.113440	-0.207729	-0.971586	0.038810	-0.976226	0.213253	-0.992787	-0.061899	-0.102681
316	1096825623													-0.429325	0.166399	-0.092436	0.115413	-0.208081	-0.971279	0.039276	-0.976092	0.213779	-0.992541	-0.062821	-0.104481
317	1096842290													-0.404716	0.279926	-0.066588	0.117275	-0.208618	-0.970940	0.039672	-0.975922	0.214480	-0.992307	-0.063672	-0.106175
318	1096858957													-0.332822	0.335129	-0.020393	0.118670	-0.209153	-0.970656	0.039985	-0.975764	0.215142	-0.992128	-0.064343	-0.107431
319	1096875624													-0.297708	0.341711	-0.039835	0.119692	-0.209785	-0.970394	0.040137	-0.975599	0.215861	-0.991999	-0.064786	-0.108351
320	1096892291													-0.257923	0.312475	-0.001055	0.120170	-0.210400	-0.970202	0.040108	-0.975457	0.216507	-0.991943	-0.064930	-0.108782
321	1096908958													-0.188624	0.274593	-0.008239	0.120233	-0.210943	-0.970076	0.039993	-0.975342	0.217045	-0.991940	-0.064893	-0.108832
322	1096925625													-0.168790	0.226575	0.020758	0.119959	-0.211450	-0.969999	0.039808	-0.975245	0.217517	-0.991980	-0.064707	-0.108572
323	1096942292													-0.139631	0.254941	0.003417	0.119596	-0.212021	-0.969919	0.039566	-0.975137	0.218041	-0.992034	-0.064453	-0.108234
324	1096958959													-0.129823	0.277841	-0.013268	0.119215	-0.212565	-0.969847	0.039220	-0.975043	0.218525	-0.992094	-0.064089	-0.107903
325	1096975626													-0.185299	0.309499	0.034966	0.118652	-0.213215	-0.969774	0.038718	-0.974937	0.219087	-0.992181	-0.063543	-0.107423
326	1096992293													-0.173193	0.243559	0.004962	0.117903	-0.213750	-0.969747	0.038062	-0.974868	0.219506	-0.992295	-0.062791	-0.106804
327	1097008960													-0.174741	0.250949	0.045333	0.116855	-0.214409	-0.969729	0.037046	-0.974797	0.219994	-0.992458	-0.061632	-0.105967
328	1097025627													-0.116810	0.180602	0.083517	0.115684	-0.214912	-0.969758	0.035678	-0.974783	0.220282	-0.992645	-0.060082	-0.105100
329	1097042294													-0.108400	0.152365	0.102293	0.114221	-0.215185	-0.969871	0.033558	-0.974867	0.220246	-0.992888	-0.057704	-0.104129
330	1097058961													-0.073870	0.099369	0.153581	0.112742	-0.215124	-0.970057	0.030939	-0.975048	0.219827	-0.993142	-0.054797	-0.103274
331	1097075628													-0.073202	0.055441	0.076300	0.111332	-0.214627	-0.970330	0.027652	-0.975353	0.218911	-0.993399	-0.051203	-0.102653
332	1097092295													-0.100155	0.019058	0.060808	0.110305	-0.213708	-0.970650	0.024178	-0.975744	0.217577	-0.993604	-0.047468	-0.102462
333	1097108962													-0.178564	0.019109	0.046887	0.109738	-0.212647	-0.970947	0.020903	-0.976137	0.216146	-0.993741	-0.044015	-0.102674
334	1097125629													-0.190021	0.049348	0.039372	0.109749	-0.211676	-0.971158	0.017523	-0.976496	0.214820	-0.993805	-0.040594	-0.103460
335	1097142296													-0.187084	0.081962	0.059072	0.110331	-0.210879	-0.971266	0.014162	-0.976799	0.213689	-0.993794	-0.037332	-0.104784
336	1097158963													-0.220142	0.114887	-0.224949	0.111335	-0.210112	-0.971317	0.010955	-0.977075	0.212613	-0.993723	-0.034312	-0.106481
337	1097175630													-0.195635	0.098882	-0.143703	0.112553	-0.209174	-0.971380	0.008251	-0.977361	0.211418	-0.993612	-0.031810	-0.108279
338	1097192297													-0.240377	0.105960	0.000581	0.113839	-0.208195	-0.971440	0.005995	-0.977635	0.210225	-0.993481	-0.029756	-0.110045
339	1097208964													-0.272645	0.079028	-0.115161	0.114786	-0.207097	-0.971563	0.004025	-0.977923	0.208928	-0.993382	-0.027893	-0.111418
340	1097225631													-0.281465	0.159017	0.032191	0.115861	-0.206071	-0.971654	0.002157	-0.978187	0.207714	-0.993263	-0.026162	-0.112889
341	1097242298													-0.238228	0.213997	-0.007390	0.116623	-0.205148	-0.971758	0.000411	-0.978425	0.206604	-0.993176	-0.024494	-0.114023
342	1097258965													-0.232314	0.234643	-0.105725	0.117307	-0.204227	-0.971870	-0.001342	-0.978658	0.205491	-0.993095	-0.022801	-0.115077
343	1097275632													-0.169572	0.230994	0.041972	0.117951	-0.203204	-0.972006	-0.002970	-0.978907	0.204287	-0.993015	-0.021209	-0.116066
344	1097292299													-0.191978	0.167258	0.029665	0.118451	-0.202007	-0.972195	-0.004626	-0.979189	0.202896	-0.992949	-0.019536	-0.116921
345	1097308966													-0.286573	0.121193	-0.027030	0.119203	-0.200798	-0.972353	-0.006471	-0.979472	0.201475	-0.992849	-0.017725	-0.118056
346	1097325633													-0.178256	0.075315	0.113634	0.119904	-0.199625	-0.972509	-0.008295	-0.979743	0.200087	-0.992751	-0.015925	-0.119131
347	1097342300													-0.245265	-0.042115	-0.005857	0.120190	-0.198183	-0.972768	-0.009981	-0.980063	0.198436	-0.992701	-0.014140	-0.119772
348	1097358967													-0.163671	0.072442	-0.002655	0.120445	-0.196755	-0.973026	-0.011366	-0.980371	0.196834	-0.992655	-0.012648	-0.120317
349	1097375634													-0.215981	0.058673	-0.067783	0.120760	-0.195399	-0.973261	-0.012716	-0.980660	0.195306	-0.992600	-0.011209	-0.120909
350	1097392301													-0.129824	0.146022	-0.033618	0.121126	-0.194109	-0.973473	-0.013948	-0.980930	0.193860	-0.992539	-0.009904	-0.121523
351	1097408968													-0.166790	0.124304	0.019800	0.121509	-0.192627	-0.973720	-0.015043	-0.981233	0.192236	-0.992476	-0.008711	-0.122127
352	1097425635													-0.148034	0.115808	-0.000407	0.121735	-0.191174	-0.973978	-0.015990	-0.981526	0.190657	-0.992434	-0.007636	-0.122543
353	1097442302													-0.204477	0.139876	0.020679	0.121969	-0.189830	-0.974212	-0.016861	-0.981795	0.189196	-0.992391	-0.006650	-0.122949
354	1097458969													-0.180131	0.112603	-0.072978	0.122092	-0.188594	-0.974436	-0.017522	-0.982038	0.187870	-0.992364	-0.005863	-0.123203
355	1097475636													-0.169945	0.149003	-0.067794	0.122155	-0.187492	-0.974641	-0.017981	-0.982252	0.186702	-0.992348	-0.005282	-0.123358
356	1097492303													-0.181784	0.180903	-0.007059	0.122388	-0.186684	-0.974767	-0.018205	-0.982407	0.185862	-0.992315	-0.005002	-0.123634
357	1097508970													-0.002202	0.287288	0.023777	0.122623	-0.186275	-0.974815	-0.018261	-0.982485	0.185443	-0.992285	-0.004939	-0.123877
358	1097525637													0.032037	0.131224	-0.058646	0.123406	-0.185780	-0.974811	-0.018389	-0.982579	0.184933	-0.992186	-0.004896	-0.124673
359	1097542304													-0.166699	-0.031343	0.048520	0.124572	-0.185041	-0.974803	-0.018329	-0.982718	0.184201	-0.992041	-0.005079	-0.125811
360	1097558971													-0.292785	0.046121	-0.034996	0.125355	-0.184469	-0.974811	-0.018131	-0.982824	0.183653	-0.991946	-0.005348	-0.126547
361	1097575638													-0.234220	0.143697	0.000978	0.126018	-0.184036	-0.974808	-0.017859	-0.982903	0.183256	-0.991867	-0.005684	-0.127150
362	1097592305													-0.094486	0.250468	0.003756	0.126837	-0.183699	-0.974765	-0.017525	-0.982963	0.182964	-0.991769	-0.006124	-0.127896
363	1097608972													-0.026508	0.231406	0.043061	0.127880	-0.183400	-0.974685	-0.017244	-0.983017	0.182705	-0.991640	-0.006557	-0.128871
364	1097625639													-0.041401	0.232965	0.032154	0.129071	-0.183262	-0.974554	-0.017033	-0.983039	0.182601	-0.991489	-0.006969	-0.130004
365	1097642306													-0.143925	0.130138	0.010680	0.130059	-0.183003	-0.974471	-0.016891	-0.983086	0.182366	-0.991362	-0.007258	-0.130950
366	1097658973													-0.272761	0.059552	-0.029178	0.130815	-0.182566	-0.974452	-0.016765	-0.983165	0.181947	-0.991265	-0.007464	-0.131674
367	1097675640													-0.307853	0.082072	0.002769	0.131214	-0.182089	-0.974488	-0.016579	-0.983252	0.181494	-0.991215	-0.007659	-0.132035
368	1097692307													-0.245095	0.184027	-0.008783	0.131378	-0.181745	-0.974530	-0.016397	-0.983315	0.181173	-0.991197	-0.007823	-0.132166
369	1097708974													-0.152312	0.228826	0.005860	0.131534	-0.181433	-0.974567	-0.016301	-0.983372	0.180872	-0.991178	-0.007904	-0.132304
370	1097725641													-0.138840	0.217148	0.002885	0.131700	-0.181082	-0.974610	-0.016297	-0.983436	0.180520	-0.991156	-0.007891	-0.132469
371	1097742308													-0.141852	0.209851	0.015216	0.131818	-0.180741	-0.974657	-0.016341	-0.983500	0.180171	-0.991139	-0.007823	-0.132597
372	1097758975													-0.161913	0.154237	-0.002917	0.131810	-0.180422	-0.974717	-0.016425	-0.983559	0.179837	-0.991139	-0.007695	-0.132607
373	1097775642													-0.151068	0.120928	0.020877	0.131915	-0.180055	-0.974771	-0.016494	-0.983627	0.179459	-0.991124	-0.007595	-0.132725
374	1097792309													-0.098908	0.059995	0.014950	0.132042	-0.179542	-0.974848	-0.016558	-0.983722	0.178934	-0.991106	-0.007486	-0.132866
375	1097808976													-0.088425	0.061115	0.040251	0.132355	-0.178928	-0.974919	-0.016541	-0.983834	0.178318	-0.991064	-0.007476	-0.133175
376	1097825643													-0.106652	0.092666	0.020825	0.132822	-0.178268	-0.974976	-0.016445	-0.983953	0.177669	-0.991003	-0.007565	-0.133622
377	1097842310													-0.132777	0.096611	0.029983	0.133306	-0.177619	-0.975029	-0.016328	-0.984069	0.177034	-0.990940	-0.007679	-0.134082
378	1097858977													-0.154783	0.119056	0.023045	0.133780	-0.176992	-0.975078	-0.016186	-0.984181	0.176423	-0.990879	-0.007820	-0.134529
