// Start Time: Unknown
// Update Rate: 100.0Hz
//Filter Profile: human (46.1)
// Option Flags: AHS Disabled ICC Disabled
// Firmware Version: 4.0.2
PacketCounter	SampleTimeFine	Year	Month	Day	Second	UTC_Nano	UTC_Year	UTC_Month	UTC_Day	UTC_Hour	UTC_Minute	UTC_Second	UTC_Valid	Acc_X	Acc_Y	Acc_Z	Mat[1][1]	Mat[1][2]	Mat[1][3]	Mat[2][1]	Mat[2][2]	Mat[2][3]	Mat[3][1]	Mat[3][2]	Mat[3][3]
1	1091575518													0.201037	-0.258608	-0.057763	-0.206001	0.065857	0.976333	0.015078	0.997828	-0.064126	-0.978436	0.001511	-0.206546
2	1091592185													0.196402	-0.266316	-0.048297	-0.205934	0.065920	0.976343	0.015120	0.997824	-0.064181	-0.978449	0.001545	-0.206482
3	1091608852													0.172815	-0.254659	-0.055535	-0.205926	0.065963	0.976342	0.015183	0.997821	-0.064211	-0.978450	0.001601	-0.206479
4	1091625519													0.159027	-0.248332	-0.075566	-0.205937	0.066005	0.976337	0.015221	0.997818	-0.064246	-0.978447	0.001630	-0.206492
5	1091642186													0.132584	-0.263905	-0.053965	-0.206029	0.066018	0.976316	0.015214	0.997817	-0.064262	-0.978428	0.001613	-0.206584
6	1091658853													0.148886	-0.299566	-0.064380	-0.206160	0.065985	0.976291	0.015194	0.997819	-0.064232	-0.978400	0.001592	-0.206713
7	1091675520													0.165296	-0.298049	-0.059257	-0.206311	0.065923	0.976263	0.015178	0.997823	-0.064171	-0.978369	0.001579	-0.206862
8	1091692187													0.186449	-0.298280	-0.046191	-0.206356	0.065828	0.976260	0.015195	0.997830	-0.064070	-0.978359	0.001613	-0.206908
9	1091708854													0.192098	-0.267302	-0.045742	-0.206368	0.065712	0.976266	0.015252	0.997837	-0.063940	-0.978356	0.001695	-0.206923
10	1091725521													0.207020	-0.239622	-0.049492	-0.206369	0.065563	0.976275	0.015277	0.997847	-0.063782	-0.978355	0.001752	-0.206926
11	1091742188													0.190215	-0.222840	-0.033420	-0.206297	0.065510	0.976294	0.015285	0.997850	-0.063727	-0.978370	0.001776	-0.206855
12	1091758855													0.191360	-0.239887	-0.062446	-0.206213	0.065571	0.976308	0.015281	0.997846	-0.063790	-0.978388	0.001764	-0.206771
13	1091775522													0.179206	-0.257267	-0.069569	-0.206133	0.065685	0.976317	0.015266	0.997839	-0.063910	-0.978405	0.001730	-0.206690
14	1091792189													0.169270	-0.275279	-0.066682	-0.206084	0.065728	0.976324	0.015259	0.997836	-0.063955	-0.978415	0.001718	-0.206642
15	1091808856													0.174641	-0.285606	-0.044203	-0.206065	0.065650	0.976334	0.015206	0.997841	-0.063887	-0.978420	0.001681	-0.206618
16	1091825523													0.175555	-0.274478	-0.001248	-0.206002	0.065478	0.976359	0.015113	0.997853	-0.063730	-0.978435	0.001627	-0.206549
17	1091842190													0.176713	-0.277673	-0.057046	-0.205786	0.065309	0.976415	0.015028	0.997864	-0.063576	-0.978482	0.001590	-0.206328
18	1091858857													0.197151	-0.249417	-0.055886	-0.205550	0.065205	0.976472	0.014956	0.997871	-0.063486	-0.978532	0.001554	-0.206087
19	1091875524													0.189239	-0.256240	-0.023329	-0.205295	0.065204	0.976526	0.014835	0.997871	-0.063511	-0.978588	0.001449	-0.205825
20	1091892191													0.180972	-0.255278	-0.061547	-0.204966	0.065292	0.976589	0.014773	0.997865	-0.063614	-0.978658	0.001389	-0.205493
21	1091908858													0.170386	-0.264869	-0.065554	-0.204694	0.065352	0.976642	0.014718	0.997861	-0.063687	-0.978715	0.001337	-0.205218
22	1091925525													0.166942	-0.272377	-0.023274	-0.204444	0.065325	0.976696	0.014667	0.997863	-0.063671	-0.978768	0.001308	-0.204965
23	1091942192													0.159992	-0.284688	-0.018798	-0.204041	0.065326	0.976780	0.014626	0.997863	-0.063681	-0.978853	0.001293	-0.204560
24	1091958859													0.225375	-0.276973	-0.057380	-0.203586	0.065429	0.976868	0.014592	0.997856	-0.063793	-0.978948	0.001267	-0.204104
25	1091975526													0.231790	-0.267367	-0.068220	-0.203097	0.065606	0.976958	0.014496	0.997845	-0.063995	-0.979051	0.001165	-0.203610
26	1091992193													0.252725	-0.257674	-0.060809	-0.202701	0.065680	0.977035	0.014350	0.997840	-0.064102	-0.979135	0.001027	-0.203206
27	1092008860													0.220996	-0.284563	-0.061200	-0.202353	0.065712	0.977105	0.014196	0.997838	-0.064166	-0.979210	0.000887	-0.202849
28	1092025527													0.215654	-0.283980	-0.053535	-0.202080	0.065691	0.977163	0.014036	0.997840	-0.064178	-0.979268	0.000746	-0.202565
29	1092042194													0.196108	-0.304728	-0.029497	-0.201843	0.065637	0.977216	0.013888	0.997843	-0.064154	-0.979319	0.000623	-0.202319
30	1092058861													0.147345	-0.290697	-0.034451	-0.201596	0.065542	0.977273	0.013728	0.997850	-0.064090	-0.979373	0.000496	-0.202062
31	1092075528													0.163825	-0.292375	-0.034214	-0.201348	0.065415	0.977333	0.013564	0.997858	-0.063995	-0.979426	0.000371	-0.201804
32	1092092195													0.146710	-0.273399	-0.028123	-0.201079	0.065239	0.977400	0.013357	0.997870	-0.063857	-0.979484	0.000215	-0.201522
33	1092108862													0.130636	-0.271263	-0.058969	-0.200782	0.064978	0.977479	0.013144	0.997887	-0.063635	-0.979548	0.000072	-0.201212
34	1092125529													0.088078	-0.287305	-0.039268	-0.200505	0.064575	0.977562	0.012848	0.997913	-0.063284	-0.979608	-0.000129	-0.200916
35	1092142196													0.069554	-0.296483	-0.012428	-0.200263	0.064028	0.977648	0.012433	0.997948	-0.062811	-0.979663	-0.000423	-0.200648
36	1092158863													0.065677	-0.296340	0.061273	-0.199985	0.063286	0.977753	0.011814	0.997995	-0.062180	-0.979728	-0.000883	-0.200331
37	1092175530													0.047454	-0.256708	0.078480	-0.199512	0.062382	0.977908	0.011032	0.998051	-0.061416	-0.979833	-0.001464	-0.199811
38	1092192197													0.001483	-0.249899	0.042968	-0.198621	0.061416	0.978150	0.010167	0.998110	-0.060604	-0.980024	-0.002092	-0.198870
39	1092208864													-0.053537	-0.230382	-0.005518	-0.197301	0.060495	0.978475	0.009326	0.998165	-0.059832	-0.980299	-0.002680	-0.197503
40	1092225531													-0.094991	-0.243142	0.008510	-0.195534	0.059631	0.978882	0.008353	0.998215	-0.059140	-0.980661	-0.003387	-0.195683
41	1092242198													-0.137076	-0.268866	0.116425	-0.193310	0.058653	0.979383	0.006995	0.998269	-0.058403	-0.981113	-0.004439	-0.193386
42	1092258865													-0.247611	-0.258490	0.193477	-0.190028	0.057035	0.980121	0.005214	0.998356	-0.057085	-0.981765	-0.005738	-0.190013
43	1092275532													-0.336886	-0.180972	0.203221	-0.185426	0.054840	0.981127	0.003274	0.998470	-0.055191	-0.982653	-0.007022	-0.185322
44	1092292199													-0.416173	-0.104806	0.267684	-0.179616	0.053038	0.982306	0.001251	0.998557	-0.053686	-0.983736	-0.008414	-0.179423
45	1092308866													-0.353403	-0.046060	0.154228	-0.172148	0.051795	0.983709	-0.000611	0.998611	-0.052687	-0.985071	-0.009671	-0.171877
46	1092325533													-0.190083	-0.030706	0.210918	-0.162977	0.050049	0.985360	-0.002494	0.998688	-0.051138	-0.986627	-0.010792	-0.162638
47	1092342200													-0.164007	-0.158923	0.294766	-0.152548	0.047923	0.987134	-0.004547	0.998779	-0.049191	-0.988286	-0.011993	-0.152143
48	1092358867													-0.451487	-0.383778	0.327675	-0.140840	0.046026	0.988962	-0.006184	0.998858	-0.047368	-0.990013	-0.012787	-0.140394
49	1092375534													-0.546824	-0.595635	0.071265	-0.126747	0.043680	0.990973	-0.007043	0.998965	-0.044933	-0.991910	-0.012675	-0.126308
50	1092392201													-0.668927	-0.625876	-0.391111	-0.112587	0.041374	0.992780	-0.007116	0.999074	-0.042443	-0.993616	-0.011844	-0.112188
51	1092408868													-0.754622	-0.642468	-0.372390	-0.100667	0.040818	0.994082	-0.006937	0.999105	-0.041727	-0.994896	-0.011097	-0.100294
52	1092425535													-0.808111	-0.844321	-0.100741	-0.089548	0.043944	0.995013	-0.006906	0.998975	-0.044740	-0.995959	-0.010878	-0.089153
53	1092442202													-0.751793	-1.050614	-0.052181	-0.077255	0.049991	0.995757	-0.007155	0.998689	-0.050693	-0.996986	-0.011041	-0.076796
54	1092458869													-0.685051	-1.245435	-0.235021	-0.064696	0.056520	0.996303	-0.007860	0.998335	-0.057146	-0.997874	-0.011529	-0.064144
55	1092475536													-0.816493	-1.334279	-0.192862	-0.053314	0.061309	0.996694	-0.009179	0.998041	-0.061883	-0.998536	-0.012448	-0.052647
56	1092492203													-0.862203	-1.300075	-0.002921	-0.043468	0.066543	0.996836	-0.010890	0.997689	-0.067074	-0.998995	-0.013771	-0.042643
57	1092508870													-0.711342	-1.116983	0.223976	-0.032987	0.075698	0.996585	-0.012734	0.997015	-0.076152	-0.999375	-0.015203	-0.031925
58	1092525537													-0.671851	-0.804848	0.168632	-0.021728	0.089021	0.995793	-0.014577	0.995894	-0.089348	-0.999658	-0.016457	-0.020341
59	1092542204													-0.096612	-0.590467	0.289669	-0.008758	0.106382	0.994287	-0.016458	0.994175	-0.106515	-0.999826	-0.017297	-0.006956
60	1092558871													0.423396	-0.475783	0.528791	0.007479	0.127005	0.991874	-0.019146	0.991738	-0.126843	-0.999789	-0.018042	0.009849
61	1092575538													0.381596	-0.305333	0.413936	0.026588	0.149551	0.988396	-0.023344	0.988569	-0.148949	-0.999374	-0.019113	0.029775
62	1092592205													0.069408	0.084094	0.065138	0.045516	0.171847	0.984072	-0.028783	0.984909	-0.170662	-0.998549	-0.020556	0.049775
63	1092608872													-0.138620	0.315630	0.001363	0.063487	0.192612	0.979219	-0.035427	0.981015	-0.190668	-0.997354	-0.022586	0.069106
64	1092625539													-0.059394	0.341460	-0.066616	0.081502	0.210671	0.974154	-0.043064	0.977237	-0.207734	-0.995742	-0.025020	0.088719
65	1092642206													0.327128	-0.066804	-0.113378	0.100616	0.226850	0.968719	-0.051172	0.973551	-0.222666	-0.993609	-0.027168	0.109563
66	1092658873													0.253739	-0.271598	-0.407568	0.118735	0.242126	0.962952	-0.059501	0.969805	-0.236512	-0.991142	-0.029215	0.129557
67	1092675540													0.136132	-0.373705	-0.559788	0.135555	0.256221	0.957066	-0.068188	0.966105	-0.248982	-0.988421	-0.031510	0.148431
68	1092692207													0.277764	-0.008131	-0.765418	0.149290	0.265510	0.952479	-0.077663	0.963447	-0.256394	-0.985739	-0.035695	0.164454
69	1092708874													0.350315	0.161651	-0.562291	0.162335	0.270095	0.949050	-0.087475	0.961960	-0.258806	-0.982851	-0.041005	0.179787
70	1092725541													0.920437	0.023543	-0.312716	0.176104	0.272765	0.945826	-0.096576	0.960994	-0.259158	-0.979623	-0.045706	0.195577
71	1092742208													1.139027	-0.457106	0.035709	0.189642	0.276930	0.941990	-0.105364	0.959600	-0.260895	-0.976184	-0.049776	0.211159
72	1092758875													0.981026	-0.766752	0.114259	0.201952	0.284622	0.937126	-0.114433	0.957145	-0.266042	-0.972687	-0.053511	0.225868
73	1092775542													0.975650	-0.663468	0.281388	0.212957	0.293458	0.931951	-0.123352	0.954273	-0.272300	-0.969244	-0.056970	0.239418
74	1092792209													0.842035	-0.339628	0.259084	0.223983	0.301748	0.926704	-0.131732	0.951510	-0.277986	-0.965649	-0.059812	0.252872
75	1092808876													0.774111	-0.002488	0.078018	0.234678	0.309599	0.921452	-0.139927	0.948812	-0.283155	-0.961949	-0.062486	0.265987
76	1092825543													0.815118	0.071403	-0.251385	0.245254	0.317556	0.915974	-0.148310	0.945999	-0.288255	-0.958047	-0.065152	0.279107
77	1092842210													0.822167	0.114829	-0.185438	0.255660	0.327680	0.909541	-0.157747	0.942337	-0.295155	-0.953810	-0.068018	0.292608
78	1092858877													0.782135	0.272076	-0.231853	0.266321	0.338638	0.902440	-0.167986	0.938231	-0.302494	-0.949133	-0.071037	0.306758
79	1092875544													1.097946	0.562807	-0.109346	0.278466	0.349247	0.894697	-0.179170	0.934081	-0.308855	-0.943586	-0.074298	0.322684
80	1092892211													1.090684	0.519492	-0.015794	0.292282	0.357874	0.886847	-0.190708	0.930528	-0.312648	-0.937124	-0.077748	0.340226
81	1092908878													0.849332	0.306694	-0.316687	0.305970	0.365161	0.879227	-0.202400	0.927356	-0.314715	-0.930278	-0.081662	0.357651
82	1092925545													0.935463	-0.006766	-0.519675	0.318934	0.371889	0.871768	-0.213914	0.924314	-0.316044	-0.923321	-0.085686	0.374348
83	1092942212													0.479730	0.267846	-0.644075	0.330858	0.378786	0.864323	-0.225402	0.921117	-0.317393	-0.916366	-0.089808	0.390138
84	1092958879													0.522073	0.335248	-0.486049	0.342178	0.384912	0.857179	-0.236491	0.918160	-0.317890	-0.909388	-0.093940	0.405203
85	1092975546													0.662323	-0.203696	-0.315085	0.353431	0.392148	0.849298	-0.248202	0.914663	-0.319041	-0.901933	-0.098038	0.420602
86	1092992213													0.893506	-0.327655	-0.356789	0.363483	0.402021	0.840392	-0.262167	0.909779	-0.321823	-0.893951	-0.103346	0.436086
87	1093008880													0.446060	0.270497	-0.656804	0.375135	0.408318	0.832196	-0.275751	0.906273	-0.320361	-0.885006	-0.109300	0.452568
88	1093025547													0.325529	0.223549	-0.344604	0.389440	0.411266	0.824134	-0.288314	0.904240	-0.315000	-0.874764	-0.114935	0.470721
89	1093042214													-0.259586	-0.408687	0.021948	0.405429	0.413564	0.815225	-0.299618	0.902663	-0.308915	-0.863630	-0.119013	0.489877
90	1093058881													-0.908098	-1.056632	-0.183448	0.421554	0.417613	0.804917	-0.310398	0.900475	-0.304628	-0.852024	-0.121427	0.509225
91	1093075548													-0.913138	-1.272971	-0.174536	0.435509	0.424071	0.794037	-0.321350	0.897204	-0.302917	-0.840872	-0.123240	0.527016
92	1093092215													-1.114207	-1.068922	-0.002293	0.447324	0.431282	0.783516	-0.332118	0.893512	-0.302216	-0.830421	-0.125031	0.542926
93	1093108882													-0.913278	-0.842962	0.133914	0.456946	0.439910	0.773097	-0.343167	0.889042	-0.303053	-0.820632	-0.126823	0.557207
94	1093125549													-0.489255	-0.801583	0.092277	0.464457	0.450200	0.762627	-0.354639	0.883634	-0.305650	-0.811487	-0.128496	0.570069
95	1093142216													-0.405181	-0.683105	-0.180230	0.470234	0.460004	0.753177	-0.366102	0.878199	-0.307791	-0.803025	-0.131006	0.581368
96	1093158883													-0.369460	-0.480693	-0.271203	0.475579	0.468867	0.744304	-0.377905	0.872955	-0.308444	-0.794363	-0.134586	0.592346
97	1093175550													-0.453479	-0.436812	-0.316926	0.481280	0.477315	0.735214	-0.389795	0.867790	-0.308222	-0.785131	-0.138242	0.603705
98	1093192217													-0.350064	-0.576596	-0.340198	0.487204	0.486935	0.724932	-0.402490	0.861899	-0.308435	-0.775006	-0.141507	0.615907
99	1093208884													-0.397949	-0.400135	-0.300532	0.492914	0.496881	0.714244	-0.415960	0.855584	-0.308146	-0.764207	-0.145208	0.628412
100	1093225551													-0.011683	0.091423	-0.023286	0.498409	0.507151	0.703126	-0.430361	0.848790	-0.307155	-0.752581	-0.149509	0.641303
101	1093242218													-0.068065	0.413425	0.044248	0.505924	0.515513	0.691583	-0.443957	0.843036	-0.303633	-0.739556	-0.153418	0.655378
102	1093258885													0.055412	0.445235	0.284784	0.513536	0.522935	0.680309	-0.456649	0.837795	-0.299285	-0.726466	-0.156968	0.669035
103	1093275552													0.540490	-0.100560	0.408723	0.519938	0.530449	0.669543	-0.468654	0.832461	-0.295586	-0.714162	-0.160098	0.681426
104	1093292219													0.397555	-0.483585	0.064295	0.524893	0.538858	0.658877	-0.480992	0.826421	-0.292702	-0.702235	-0.163277	0.692969
105	1093308886													0.207752	-0.467853	-0.068413	0.529174	0.545920	0.649574	-0.492549	0.820993	-0.288732	-0.690920	-0.167158	0.703340
106	1093325553													0.099248	-0.323962	-0.041346	0.534220	0.551923	0.640305	-0.503257	0.816241	-0.283695	-0.679221	-0.170682	0.713812
107	1093342220													-0.048849	-0.072485	-0.121981	0.541057	0.556910	0.630166	-0.512829	0.812364	-0.277616	-0.666531	-0.172961	0.725135
108	1093358887													-0.328466	-0.135538	0.031468	0.549460	0.561537	0.618684	-0.521700	0.808970	-0.270920	-0.652628	-0.173908	0.737450
109	1093375554													-0.262865	-0.729287	-0.009145	0.557741	0.566796	0.606355	-0.530797	0.805193	-0.264421	-0.638106	-0.174373	0.749943
110	1093392221													-0.260024	-1.165191	-0.234437	0.564744	0.572126	0.594757	-0.540096	0.801141	-0.257816	-0.623988	-0.175625	0.761443
111	1093408888													-0.700569	-1.013005	-0.205772	0.570521	0.576190	0.585244	-0.549221	0.797486	-0.249744	-0.610624	-0.178945	0.771438
112	1093425555													-0.793426	-0.634731	0.003183	0.577857	0.578823	0.575364	-0.557493	0.794825	-0.239695	-0.596055	-0.182252	0.781986
113	1093442222													-0.398820	-0.446755	0.065019	0.587417	0.581063	0.563301	-0.564964	0.792802	-0.228649	-0.579445	-0.183933	0.793985
114	1093458889													0.340812	-0.309107	0.430212	0.597669	0.582163	0.551252	-0.571083	0.791709	-0.216933	-0.562722	-0.185156	0.805643
115	1093475556													0.683560	-0.180858	0.776146	0.610793	0.580122	0.538878	-0.574026	0.793203	-0.203279	-0.545367	-0.185169	0.817489
116	1093492223													0.526308	-0.097538	0.874766	0.628332	0.574584	0.524454	-0.573084	0.797774	-0.187436	-0.526093	-0.182784	0.830552
117	1093508890													0.612570	0.146535	0.741777	0.648117	0.566468	0.508978	-0.569303	0.804312	-0.170227	-0.505804	-0.179436	0.843780
118	1093525557													0.491987	-0.038793	-0.073131	0.666534	0.557933	0.494412	-0.565036	0.810729	-0.153145	-0.486279	-0.177284	0.855630
119	1093542224													0.237984	-0.641961	-0.591130	0.683305	0.549616	0.480641	-0.561002	0.816538	-0.136166	-0.467301	-0.176598	0.866281
120	1093558891													0.506387	-0.937129	-0.388211	0.699316	0.540229	0.468092	-0.556785	0.822340	-0.117249	-0.448272	-0.178632	0.875867
121	1093575558													0.681235	-0.031719	0.720075	0.716853	0.526300	0.457307	-0.548968	0.830409	-0.095155	-0.429832	-0.182834	0.884204
122	1093592225													1.495957	1.914679	2.165559	0.735321	0.506227	0.450596	-0.536194	0.841185	-0.070031	-0.414486	-0.190112	0.889977
123	1093608892													0.792903	2.125491	1.783505	0.752459	0.486393	0.444103	-0.523473	0.850856	-0.044940	-0.399726	-0.198661	0.894848
124	1093625559													-0.252486	1.534120	1.460469	0.766670	0.471527	0.435751	-0.513796	0.857577	-0.023999	-0.385006	-0.205488	0.899747
125	1093642226													-0.875895	0.317464	1.946014	0.781182	0.456061	0.426336	-0.501751	0.864992	-0.005935	-0.371484	-0.209278	0.904546
126	1093658893													-1.186066	-0.436219	1.758644	0.793472	0.443082	0.417230	-0.490761	0.871257	0.008069	-0.359940	-0.211163	0.908765
127	1093675560													-0.669524	-0.381233	1.768876	0.801265	0.436197	0.409521	-0.484963	0.874358	0.017562	-0.350407	-0.212674	0.912132
128	1093692227													-0.129246	-0.372649	2.155958	0.806783	0.430766	0.404404	-0.480699	0.876520	0.025334	-0.343555	-0.214835	0.914229
129	1093708894													0.314934	-0.640871	1.783526	0.812521	0.422502	0.401624	-0.473924	0.879943	0.033104	-0.339420	-0.217237	0.915206
130	1093725561													0.616546	-0.864397	0.870842	0.817394	0.413954	0.400635	-0.466751	0.883511	0.039405	-0.337654	-0.219206	0.915390
131	1093742228													0.883934	-0.917352	-0.137217	0.820511	0.407941	0.400432	-0.461647	0.886005	0.043325	-0.337111	-0.220407	0.915302
132	1093758895													0.912824	-1.038798	-0.586224	0.822957	0.402961	0.400456	-0.457387	0.888059	0.046338	-0.336956	-0.221298	0.915144
133	1093775562													1.098470	-1.164497	-0.772452	0.825868	0.397189	0.400229	-0.452479	0.890368	0.050082	-0.336459	-0.222456	0.915046
134	1093792229													0.932435	-0.950205	-0.526979	0.828630	0.390865	0.400745	-0.447584	0.892553	0.054932	-0.336215	-0.224885	0.914541
135	1093808896													1.336442	-0.400898	-0.437774	0.832183	0.383430	0.400566	-0.441810	0.895024	0.061132	-0.335076	-0.227847	0.914227
136	1093825563													1.108652	-0.027276	-0.883031	0.834000	0.376439	0.403408	-0.437318	0.896787	0.067273	-0.336447	-0.232523	0.912544
137	1093842230													0.138249	0.137061	-0.456492	0.835664	0.368334	0.407426	-0.432438	0.898571	0.074612	-0.338620	-0.238537	0.910185
138	1093858897													-0.023285	-0.381499	-0.166348	0.839146	0.358370	0.409153	-0.425601	0.901034	0.083680	-0.338672	-0.244355	0.908621
139	1093875564													-0.211789	-0.717458	0.194139	0.843523	0.346830	0.410095	-0.417562	0.903712	0.094586	-0.337803	-0.251026	0.907125
140	1093892231													-0.741937	-0.487915	0.188588	0.847941	0.334211	0.411460	-0.408865	0.906372	0.106386	-0.337381	-0.258441	0.905198
141	1093908898													-1.384152	-0.002149	0.666401	0.852065	0.322889	0.411980	-0.401076	0.908479	0.117494	-0.336337	-0.265347	0.903586
142	1093925565													-0.964937	-0.309948	0.687274	0.853452	0.321079	0.410521	-0.401312	0.907429	0.124582	-0.332519	-0.271072	0.903300
143	1093942232													-0.516447	-0.403734	1.461313	0.854361	0.320804	0.408842	-0.402576	0.906064	0.130309	-0.328633	-0.275921	0.903254
144	1093958899													0.356927	-0.369969	1.205605	0.856164	0.318246	0.407067	-0.401398	0.905729	0.136141	-0.325366	-0.279955	0.903196
145	1093975566													0.216834	-0.283268	0.542232	0.857675	0.314692	0.406647	-0.399227	0.905956	0.140932	-0.324054	-0.283219	0.902650
146	1093992233													0.128725	-0.540262	0.319231	0.858243	0.312729	0.406964	-0.398268	0.905936	0.143742	-0.323731	-0.285446	0.902064
147	1094008900													0.347677	-0.685180	0.182937	0.858819	0.312061	0.406261	-0.398141	0.905629	0.146012	-0.322357	-0.287147	0.902016
148	1094025567													0.312204	-0.683375	0.120791	0.859384	0.310889	0.405964	-0.397752	0.905368	0.148666	-0.321328	-0.289234	0.901716
149	1094042234													0.299021	-0.495254	0.020810	0.859750	0.309074	0.406576	-0.397172	0.905100	0.151819	-0.321068	-0.292007	0.900915
150	1094058901													0.343015	-0.216543	-0.133978	0.859702	0.306864	0.408347	-0.396781	0.904640	0.155533	-0.321680	-0.295737	0.899479
151	1094075568													0.304343	0.015247	-0.352034	0.858970	0.305637	0.410801	-0.397503	0.903762	0.158764	-0.322742	-0.299668	0.897795
152	1094092235													0.218427	0.002964	-0.148228	0.857875	0.304742	0.413743	-0.398547	0.902838	0.161382	-0.324363	-0.303342	0.895976
153	1094108902													-0.045738	-0.335625	0.047297	0.856750	0.304232	0.416439	-0.399737	0.901935	0.163474	-0.325867	-0.306523	0.894346
154	1094125569													-0.135657	-0.468178	0.211977	0.855750	0.304105	0.418583	-0.400994	0.901071	0.165152	-0.326950	-0.309178	0.893036
155	1094142236													-0.096435	-0.597528	0.403754	0.855199	0.303310	0.420284	-0.401444	0.900536	0.166966	-0.327838	-0.311509	0.891899
156	1094158903													0.101265	-0.506361	0.557853	0.855480	0.300957	0.421400	-0.400321	0.900558	0.169524	-0.328476	-0.313719	0.890889
157	1094175570													0.303168	-0.373493	0.453667	0.856051	0.297888	0.422420	-0.398474	0.900861	0.172242	-0.329233	-0.315771	0.889884
158	1094192237													0.377239	-0.235812	0.151950	0.856366	0.295595	0.423392	-0.397259	0.900965	0.174490	-0.329883	-0.317623	0.888984
159	1094208904													0.415729	-0.408653	0.086811	0.856396	0.294415	0.424153	-0.396989	0.900725	0.176334	-0.330130	-0.319396	0.888257
160	1094225571													0.363017	-0.543441	0.178606	0.856195	0.293915	0.424905	-0.397360	0.900238	0.177979	-0.330205	-0.321225	0.887569
161	1094242238													0.162933	-0.822684	0.259268	0.856148	0.292876	0.425715	-0.397349	0.899831	0.180052	-0.330339	-0.323309	0.886763
162	1094258905													0.154767	-0.831268	0.298050	0.856077	0.291424	0.426855	-0.397150	0.899439	0.182434	-0.330764	-0.325703	0.885727
163	1094275572													0.155692	-0.699492	0.361300	0.856090	0.289536	0.428111	-0.396645	0.899120	0.185084	-0.331334	-0.328257	0.884571
164	1094292239													-0.026739	-0.601026	0.324171	0.855844	0.288399	0.429368	-0.396762	0.898616	0.187266	-0.331830	-0.330627	0.883501
165	1094308906													-0.147885	-0.553559	0.221915	0.855189	0.289089	0.430209	-0.398355	0.897612	0.188695	-0.331611	-0.332746	0.882788
166	1094325573													-0.128911	-0.683248	0.491394	0.854619	0.290294	0.430530	-0.400215	0.896520	0.189947	-0.330838	-0.334637	0.882363
167	1094342240													0.013516	-0.594169	0.483315	0.854262	0.291491	0.430430	-0.401900	0.895499	0.191200	-0.329717	-0.336325	0.882141
168	1094358907													0.115246	-0.400961	0.315210	0.853997	0.292116	0.430532	-0.403056	0.894716	0.192431	-0.328992	-0.337864	0.881823
169	1094375574													0.230990	-0.285919	0.130686	0.853761	0.292288	0.430882	-0.403771	0.894165	0.193488	-0.328726	-0.339171	0.881421
170	1094392241													0.330996	-0.244442	0.095701	0.853374	0.292533	0.431482	-0.404565	0.893635	0.194277	-0.328755	-0.340354	0.880954
171	1094408908													0.350887	-0.134456	0.083636	0.853036	0.292449	0.432207	-0.405048	0.893255	0.195019	-0.329038	-0.341423	0.880434
172	1094425575													0.293452	-0.066177	0.111070	0.852807	0.291492	0.433304	-0.404790	0.893197	0.195815	-0.329948	-0.342389	0.879718
173	1094442242													0.223187	-0.037165	0.128255	0.852641	0.289975	0.434647	-0.403988	0.893420	0.196452	-0.331356	-0.343095	0.878913
174	1094458909													0.115406	-0.088813	0.221225	0.852401	0.288569	0.436051	-0.403138	0.893776	0.196581	-0.333005	-0.343354	0.878189
175	1094475576													0.075333	-0.214892	0.210330	0.851958	0.288039	0.437265	-0.402859	0.894030	0.195998	-0.334473	-0.343138	0.877715
176	1094492243													0.070851	-0.327884	0.230593	0.851567	0.287734	0.438226	-0.402640	0.894296	0.195232	-0.335729	-0.342700	0.877407
177	1094508910													0.094090	-0.398363	0.408902	0.851549	0.286790	0.438880	-0.401733	0.894808	0.194752	-0.336861	-0.342154	0.877186
178	1094525577													0.055417	-0.356331	0.407563	0.851729	0.285243	0.439539	-0.400261	0.895533	0.194452	-0.338156	-0.341551	0.876923
179	1094542244													0.021041	-0.320688	0.332468	0.851956	0.283226	0.440402	-0.398397	0.896417	0.194206	-0.339780	-0.340910	0.876544
180	1094558911													0.006566	-0.325756	0.251122	0.852322	0.280667	0.441330	-0.396023	0.897502	0.194050	-0.341632	-0.340170	0.876112
181	1094575578													-0.019909	-0.307379	0.279261	0.852707	0.277955	0.442303	-0.393466	0.898681	0.193799	-0.343621	-0.339285	0.875677
182	1094592245													-0.173655	-0.250733	0.170947	0.852890	0.276240	0.443024	-0.391655	0.899633	0.193046	-0.345232	-0.338160	0.875479
183	1094608912													-0.272201	-0.205883	0.043818	0.852938	0.275942	0.443116	-0.390850	0.900269	0.191708	-0.346024	-0.336707	0.875726
184	1094625579													-0.387540	-0.350304	0.061191	0.853144	0.276718	0.442237	-0.390680	0.900683	0.190103	-0.345710	-0.334958	0.876520
185	1094642246													-0.261402	-0.598133	0.284627	0.853902	0.277387	0.440351	-0.390188	0.901132	0.188985	-0.344392	-0.333194	0.877711
186	1094658913													-0.105834	-0.651641	0.543098	0.855190	0.277215	0.437952	-0.388897	0.901771	0.188598	-0.342650	-0.331605	0.878993
187	1094675580													-0.035463	-0.470860	0.618614	0.856596	0.276519	0.435638	-0.387236	0.902491	0.188571	-0.341016	-0.330223	0.880148
188	1094692247													0.022726	-0.254226	0.398990	0.857742	0.275878	0.433785	-0.385778	0.903143	0.188437	-0.339784	-0.328976	0.881091
189	1094708914													0.064944	-0.158438	0.170916	0.858576	0.275429	0.432419	-0.384593	0.903744	0.187976	-0.339023	-0.327697	0.881861
190	1094725581													0.094517	-0.160190	0.015313	0.859002	0.275591	0.431468	-0.384015	0.904193	0.186995	-0.338596	-0.326319	0.882535
191	1094742248													0.119936	-0.214131	-0.034855	0.859204	0.276025	0.430789	-0.383736	0.904565	0.185763	-0.338401	-0.324917	0.883127
192	1094758915													0.128548	-0.245555	0.078265	0.859633	0.275791	0.430082	-0.382905	0.905084	0.184952	-0.338252	-0.323671	0.883642
193	1094775582													0.066389	-0.248203	0.193023	0.860273	0.274650	0.429532	-0.381372	0.905795	0.184638	-0.338357	-0.322650	0.883975
194	1094792249													-0.021980	-0.230690	0.278963	0.860764	0.273547	0.429253	-0.379975	0.906451	0.184301	-0.338681	-0.321745	0.884181
195	1094808916													-0.106357	-0.172780	0.315959	0.861061	0.272808	0.429127	-0.378956	0.906979	0.183797	-0.339068	-0.320880	0.884346
196	1094825583													-0.101395	-0.144135	0.322849	0.861358	0.272348	0.428823	-0.378082	0.907487	0.183087	-0.339288	-0.319834	0.884641
197	1094842250													-0.060775	-0.060147	0.259201	0.861644	0.272243	0.428314	-0.377379	0.907990	0.182045	-0.339344	-0.318494	0.885103
198	1094858917													-0.016887	-0.021351	0.152757	0.862062	0.272001	0.427627	-0.376428	0.908611	0.180908	-0.339340	-0.316925	0.885668
199	1094875584													-0.000464	-0.092108	0.136698	0.862387	0.271890	0.427041	-0.375579	0.909227	0.179572	-0.339453	-0.315248	0.886222
200	1094892251													0.046784	-0.123940	0.167088	0.862547	0.272032	0.426628	-0.375016	0.909746	0.178116	-0.339670	-0.313625	0.886715
201	1094908918													0.077755	-0.147171	0.224703	0.862744	0.271919	0.426301	-0.374268	0.910313	0.176790	-0.339994	-0.312075	0.887137
202	1094925585													0.027705	-0.168568	0.220382	0.862911	0.271771	0.426058	-0.373517	0.910875	0.175475	-0.340397	-0.310559	0.887515
203	1094942252													-0.034975	-0.239187	0.237643	0.862966	0.271857	0.425891	-0.373010	0.911351	0.174077	-0.340813	-0.309084	0.887870
204	1094958919													-0.038734	-0.291670	0.273193	0.862907	0.272237	0.425768	-0.372801	0.911716	0.172605	-0.341190	-0.307669	0.888217
205	1094975586													-0.043336	-0.334631	0.283626	0.862842	0.272751	0.425570	-0.372713	0.912027	0.171149	-0.341450	-0.306290	0.888593
206	1094992253													-0.023814	-0.320203	0.280164	0.862854	0.273296	0.425197	-0.372598	0.912344	0.169703	-0.341547	-0.304857	0.889049
207	1095008920													-0.010003	-0.278912	0.280902	0.862909	0.273779	0.424774	-0.372425	0.912670	0.168324	-0.341595	-0.303445	0.889513
208	1095025587													-0.016335	-0.243422	0.220674	0.862937	0.274382	0.424328	-0.372342	0.912972	0.166865	-0.341615	-0.301989	0.890001
209	1095042254													0.007128	-0.262558	0.213954	0.862963	0.274930	0.423921	-0.372214	0.913290	0.165400	-0.341689	-0.300523	0.890469
210	1095058921													0.023939	-0.285613	0.239947	0.863051	0.275385	0.423445	-0.372005	0.913621	0.164040	-0.341694	-0.299099	0.890946
211	1095075588													0.025451	-0.287704	0.260054	0.863243	0.275664	0.422872	-0.371634	0.913988	0.162830	-0.341614	-0.297715	0.891440
212	1095092255													0.032555	-0.293582	0.239532	0.863427	0.275933	0.422322	-0.371285	0.914333	0.161685	-0.341529	-0.296405	0.891909
213	1095108922													0.036340	-0.273695	0.226053	0.863539	0.276317	0.421841	-0.371087	0.914615	0.160544	-0.341461	-0.295176	0.892343
214	1095125589													0.045570	-0.284080	0.216562	0.863539	0.276841	0.421497	-0.371074	0.914825	0.159375	-0.341475	-0.294033	0.892715
215	1095142256													0.060737	-0.288729	0.225507	0.863539	0.277342	0.421166	-0.371068	0.915019	0.158271	-0.341480	-0.292954	0.893067
216	1095158923													0.065644	-0.285585	0.212136	0.863571	0.277563	0.420956	-0.370876	0.915256	0.157346	-0.341609	-0.292002	0.893330
217	1095175590													0.058753	-0.306887	0.249434	0.863517	0.277892	0.420851	-0.370821	0.915443	0.156387	-0.341806	-0.291103	0.893548
218	1095192257													0.049221	-0.334231	0.253248	0.863341	0.278467	0.420831	-0.371008	0.915552	0.155300	-0.342046	-0.290209	0.893747
219	1095208924													0.021583	-0.360827	0.261955	0.863083	0.279183	0.420886	-0.371340	0.915614	0.154136	-0.342337	-0.289324	0.893922
220	1095225591													0.003376	-0.324062	0.242858	0.862815	0.279896	0.420962	-0.371689	0.915662	0.153003	-0.342634	-0.288480	0.894081
221	1095242258													-0.037751	-0.297005	0.244505	0.862580	0.280479	0.421056	-0.371940	0.915733	0.151962	-0.342953	-0.287687	0.894214
222	1095258925													-0.044107	-0.263846	0.247983	0.862305	0.281039	0.421244	-0.372213	0.915789	0.150954	-0.343346	-0.286961	0.894297
223	1095275592													-0.090093	-0.238231	0.287058	0.862009	0.281683	0.421421	-0.372573	0.915808	0.149954	-0.343701	-0.286272	0.894381
224	1095292259													-0.118544	-0.258273	0.285797	0.861766	0.282416	0.421428	-0.372974	0.915805	0.148967	-0.343875	-0.285556	0.894543
225	1095308926													-0.133886	-0.275294	0.251235	0.861576	0.283160	0.421316	-0.373360	0.915803	0.148010	-0.343932	-0.284824	0.894755
226	1095325593													-0.158262	-0.285975	0.210106	0.861489	0.283880	0.421010	-0.373687	0.915810	0.147139	-0.343795	-0.284085	0.895042
227	1095342260													-0.133813	-0.285995	0.268592	0.861534	0.284466	0.420522	-0.373901	0.915825	0.146502	-0.343450	-0.283450	0.895376
228	1095358927													-0.121751	-0.218811	0.286122	0.861737	0.284736	0.419923	-0.373837	0.915914	0.146110	-0.343010	-0.282891	0.895721
229	1095375594													-0.056009	-0.173398	0.292035	0.861979	0.284904	0.419311	-0.373667	0.916042	0.145737	-0.342586	-0.282305	0.896069
230	1095392261													-0.000293	-0.146626	0.264127	0.862161	0.285217	0.418724	-0.373604	0.916151	0.145215	-0.342196	-0.281635	0.896428
231	1095408928													0.061586	-0.136669	0.235488	0.862311	0.285618	0.418142	-0.373593	0.916257	0.144576	-0.341832	-0.280884	0.896803
232	1095425595													0.088001	-0.190399	0.184419	0.862347	0.286013	0.417798	-0.373616	0.916364	0.143837	-0.341716	-0.280133	0.897082
233	1095442262													0.073571	-0.256797	0.175296	0.862267	0.286569	0.417582	-0.373805	0.916422	0.142970	-0.341711	-0.279373	0.897321
234	1095458929													0.064728	-0.287242	0.202951	0.862188	0.286999	0.417448	-0.373910	0.916505	0.142160	-0.341794	-0.278657	0.897512
235	1095475596													0.090009	-0.280544	0.212259	0.862056	0.287400	0.417445	-0.374034	0.916577	0.141371	-0.341990	-0.278008	0.897638
236	1095492263													0.074939	-0.232813	0.238927	0.861769	0.287965	0.417649	-0.374351	0.916589	0.140450	-0.342368	-0.277382	0.897688
237	1095508930													0.059516	-0.215934	0.226466	0.861394	0.288647	0.417951	-0.374764	0.916585	0.139369	-0.342859	-0.276684	0.897716
238	1095525597													0.035746	-0.197711	0.240581	0.860948	0.289452	0.418314	-0.375287	0.916550	0.138185	-0.343408	-0.275958	0.897729
239	1095542264													0.007735	-0.263258	0.257902	0.860417	0.290342	0.418789	-0.375904	0.916488	0.136914	-0.344064	-0.275228	0.897703
240	1095558931													-0.026348	-0.220684	0.324650	0.859849	0.291156	0.419390	-0.376459	0.916457	0.135593	-0.344874	-0.274472	0.897623
241	1095575598													-0.070318	-0.209611	0.310099	0.859218	0.292044	0.420065	-0.377087	0.916405	0.134192	-0.345760	-0.273701	0.897517
242	1095592265													-0.118544	-0.249745	0.225335	0.858574	0.293056	0.420678	-0.377827	0.916303	0.132798	-0.346551	-0.272960	0.897438
243	1095608932													-0.136927	-0.257330	0.216164	0.858025	0.293924	0.421190	-0.378473	0.916204	0.131640	-0.347204	-0.272360	0.897368
244	1095625599													-0.164490	-0.229820	0.224621	0.857688	0.294401	0.421545	-0.378794	0.916183	0.130856	-0.347688	-0.271912	0.897317
245	1095642266													-0.150433	-0.200287	0.249788	0.857429	0.294722	0.421847	-0.379011	0.916175	0.130281	-0.348089	-0.271591	0.897258
246	1095658933													-0.155183	-0.184453	0.299738	0.857210	0.294960	0.422125	-0.379153	0.916191	0.129758	-0.348474	-0.271280	0.897203
247	1095675600													-0.167144	-0.225135	0.288272	0.857079	0.295200	0.422224	-0.379272	0.916204	0.129321	-0.348668	-0.270976	0.897220
248	1095692267													-0.178684	-0.248265	0.282164	0.857042	0.295385	0.422169	-0.379312	0.916237	0.128963	-0.348713	-0.270661	0.897297
249	1095708934													-0.201021	-0.263249	0.269885	0.857150	0.295536	0.421844	-0.379276	0.916287	0.128721	-0.348488	-0.270328	0.897485
250	1095725601													-0.161726	-0.264706	0.301374	0.857341	0.295735	0.421315	-0.379244	0.916326	0.128529	-0.348052	-0.269975	0.897760
251	1095742268													-0.116771	-0.220057	0.302051	0.857614	0.295817	0.420703	-0.379090	0.916407	0.128413	-0.347548	-0.269613	0.898064
252	1095758935													-0.104861	-0.215867	0.300352	0.857980	0.295669	0.420059	-0.378716	0.916564	0.128390	-0.347050	-0.269239	0.898369
253	1095775602													-0.175723	-0.228408	0.273062	0.858421	0.295497	0.419279	-0.378297	0.916733	0.128425	-0.346417	-0.268854	0.898728
254	1095792269													-0.215629	-0.264153	0.270310	0.858947	0.295431	0.418246	-0.377932	0.916870	0.128517	-0.345510	-0.268458	0.899196
255	1095808936													-0.206360	-0.264630	0.287263	0.859635	0.295216	0.416982	-0.377421	0.917036	0.128831	-0.344355	-0.268126	0.899738
256	1095825603													-0.099115	-0.242104	0.294251	0.860387	0.294854	0.415687	-0.376803	0.917224	0.129303	-0.343153	-0.267883	0.900269
257	1095842270													-0.004603	-0.153915	0.254130	0.861116	0.294363	0.414523	-0.376118	0.917428	0.129847	-0.342073	-0.267723	0.900728
258	1095858937													0.026547	-0.102123	0.173427	0.861699	0.293828	0.413691	-0.375459	0.917633	0.130305	-0.341329	-0.267608	0.901044
259	1095875604													0.049729	-0.056122	0.107777	0.862090	0.293548	0.413074	-0.375098	0.917731	0.130656	-0.340737	-0.267581	0.901276
260	1095892271													0.064826	-0.091465	0.131082	0.862532	0.292896	0.412613	-0.374456	0.917919	0.131177	-0.340325	-0.267650	0.901411
261	1095908938													0.013762	-0.149725	0.169702	0.862899	0.292337	0.412243	-0.373961	0.918039	0.131751	-0.339939	-0.267850	0.901497
262	1095925605													-0.006075	-0.171396	0.207747	0.863107	0.292072	0.411995	-0.373782	0.918042	0.132233	-0.339607	-0.268128	0.901540
263	1095942272													0.039607	-0.165450	0.295856	0.863137	0.291984	0.411995	-0.373782	0.918006	0.132481	-0.339532	-0.268345	0.901504
264	1095958939													0.050537	-0.134697	0.289121	0.863106	0.291885	0.412130	-0.373780	0.917984	0.132642	-0.339613	-0.268530	0.901418
265	1095975606													0.044528	-0.164323	0.262553	0.863085	0.291621	0.412361	-0.373621	0.918030	0.132772	-0.339840	-0.268660	0.901294
266	1095992273													0.052315	-0.236764	0.208757	0.862997	0.291495	0.412634	-0.373588	0.918038	0.132811	-0.340100	-0.268771	0.901163
267	1096008940													0.077655	-0.240145	0.262401	0.862910	0.291404	0.412881	-0.373583	0.918035	0.132846	-0.340327	-0.268879	0.901045
268	1096025607													0.053348	-0.238984	0.238203	0.862673	0.291478	0.413322	-0.373775	0.917967	0.132776	-0.340715	-0.269032	0.900853
269	1096042274													0.022895	-0.274384	0.207085	0.862433	0.291500	0.413808	-0.373946	0.917900	0.132756	-0.341136	-0.269235	0.900632
270	1096058941													-0.023824	-0.318731	0.172904	0.862167	0.291552	0.414325	-0.374180	0.917799	0.132795	-0.341550	-0.269523	0.900389
271	1096075608													-0.002251	-0.314044	0.262478	0.861902	0.291547	0.414881	-0.374395	0.917695	0.132905	-0.341986	-0.269880	0.900117
272	1096092275													-0.004332	-0.264534	0.273726	0.861605	0.291506	0.415525	-0.374599	0.917596	0.133018	-0.342508	-0.270264	0.899803
273	1096108942													-0.041523	-0.240858	0.285394	0.861309	0.291488	0.416152	-0.374806	0.917502	0.133083	-0.343028	-0.270602	0.899503
274	1096125609													-0.091097	-0.239176	0.256444	0.861091	0.291520	0.416579	-0.374986	0.917424	0.133108	-0.343376	-0.270830	0.899302
275	1096142276													-0.144703	-0.267106	0.242624	0.860906	0.291601	0.416905	-0.375169	0.917353	0.133085	-0.343641	-0.270983	0.899155
276	1096158943													-0.106733	-0.202960	0.195376	0.860693	0.291830	0.417184	-0.375471	0.917242	0.133002	-0.343845	-0.271115	0.899037
277	1096175610													-0.036730	-0.198035	0.289170	0.860792	0.291588	0.417149	-0.375297	0.917276	0.133253	-0.343785	-0.271258	0.899016
278	1096192277													0.013562	-0.157230	0.272510	0.860680	0.291602	0.417370	-0.375415	0.917216	0.133338	-0.343937	-0.271448	0.898901
279	1096208944													-0.028927	-0.164067	0.230998	0.860586	0.291574	0.417583	-0.375498	0.917165	0.133451	-0.344082	-0.271648	0.898785
280	1096225611													-0.025106	-0.196281	0.247446	0.860474	0.291473	0.417886	-0.375548	0.917122	0.133608	-0.344310	-0.271902	0.898621
281	1096242278													-0.032927	-0.217619	0.227242	0.860271	0.291537	0.418259	-0.375779	0.917011	0.133718	-0.344564	-0.272207	0.898431
282	1096258945													-0.030211	-0.202042	0.236727	0.860027	0.291533	0.418762	-0.375966	0.916924	0.133794	-0.344968	-0.272506	0.898186
283	1096275612													-0.031854	-0.248936	0.224560	0.859764	0.291633	0.419232	-0.376202	0.916836	0.133734	-0.345366	-0.272696	0.897975
284	1096292279													-0.021418	-0.257680	0.240449	0.859430	0.291860	0.419759	-0.376525	0.916737	0.133502	-0.345844	-0.272785	0.897764
285	1096308946													-0.065494	-0.248462	0.248833	0.859259	0.291856	0.420112	-0.376586	0.916731	0.133372	-0.346204	-0.272809	0.897618
286	1096325613													-0.032123	-0.265512	0.232961	0.859159	0.291832	0.420334	-0.376575	0.916757	0.133224	-0.346465	-0.272747	0.897536
287	1096342280													-0.039405	-0.265693	0.228992	0.859215	0.291612	0.420372	-0.376337	0.916860	0.133183	-0.346584	-0.272635	0.897524
288	1096358947													0.005889	-0.306672	0.286052	0.859282	0.291378	0.420397	-0.376064	0.916984	0.133104	-0.346714	-0.272470	0.897524
289	1096375614													0.062729	-0.313869	0.295273	0.859311	0.291470	0.420273	-0.376018	0.917042	0.132833	-0.346692	-0.272175	0.897622
290	1096392281													0.079361	-0.353591	0.271383	0.859256	0.291717	0.420213	-0.376115	0.917057	0.132452	-0.346721	-0.271859	0.897707
291	1096408948													0.066007	-0.312210	0.285344	0.859159	0.291931	0.420264	-0.376225	0.917062	0.132106	-0.346842	-0.271614	0.897734
292	1096425615													0.057922	-0.295964	0.236892	0.858988	0.292085	0.420507	-0.376343	0.917061	0.131780	-0.347140	-0.271452	0.897668
293	1096442282													-0.003169	-0.268588	0.212594	0.858663	0.292342	0.420992	-0.376638	0.916990	0.131428	-0.347624	-0.271414	0.897492
294	1096458949													-0.067011	-0.273782	0.268679	0.858264	0.292772	0.421506	-0.377103	0.916858	0.131014	-0.348104	-0.271395	0.897312
295	1096475616													-0.126167	-0.291655	0.265180	0.857995	0.292992	0.421901	-0.377365	0.916787	0.130754	-0.348484	-0.271397	0.897164
296	1096492283													-0.149430	-0.256153	0.262636	0.857786	0.293387	0.422052	-0.377739	0.916669	0.130505	-0.348593	-0.271371	0.897129
297	1096508950													-0.156695	-0.218250	0.304749	0.857811	0.293507	0.421916	-0.377810	0.916644	0.130471	-0.348453	-0.271323	0.897198
298	1096525617													-0.183765	-0.135119	0.320786	0.857972	0.293538	0.421568	-0.377769	0.916647	0.130572	-0.348101	-0.271282	0.897347
299	1096542284													-0.173398	-0.080384	0.326926	0.858219	0.293475	0.421109	-0.377601	0.916699	0.130692	-0.347675	-0.271173	0.897545
300	1096558951													-0.159101	-0.048647	0.275619	0.858456	0.293510	0.420602	-0.377498	0.916733	0.130753	-0.347202	-0.271022	0.897774
301	1096575618													-0.132588	-0.060223	0.230397	0.858731	0.293625	0.419959	-0.377429	0.916756	0.130792	-0.346596	-0.270820	0.898069
302	1096592285													-0.110422	-0.080902	0.186545	0.858997	0.293902	0.419220	-0.377518	0.916707	0.130873	-0.345838	-0.270682	0.898403
303	1096608952													-0.067942	-0.054964	0.140262	0.859308	0.294073	0.418463	-0.377536	0.916671	0.131077	-0.345047	-0.270620	0.898725
304	1096625619													-0.061557	-0.015912	0.166565	0.859592	0.294100	0.417861	-0.377486	0.916649	0.131377	-0.344393	-0.270667	0.898962
305	1096642286													-0.053485	0.022157	0.155331	0.859863	0.294054	0.417334	-0.377414	0.916623	0.131760	-0.343794	-0.270803	0.899151
306	1096658953													-0.018931	0.003666	0.163722	0.860137	0.294225	0.416648	-0.377510	0.916534	0.132108	-0.343003	-0.270920	0.899417
307	1096675620													0.015831	-0.049783	0.216479	0.860313	0.294700	0.415950	-0.377862	0.916362	0.132294	-0.342173	-0.270986	0.899713
308	1096692287													0.011372	-0.101685	0.301514	0.860431	0.295281	0.415292	-0.378290	0.916177	0.132346	-0.341402	-0.270976	0.900010
309	1096708954													0.044764	-0.199179	0.255276	0.860482	0.295918	0.414733	-0.378725	0.916022	0.132180	-0.340790	-0.270808	0.900292
310	1096725621													0.101593	-0.315356	0.181806	0.860464	0.296620	0.414269	-0.379203	0.915870	0.131859	-0.340304	-0.270551	0.900553
311	1096742288													0.127062	-0.386963	0.308124	0.860455	0.297184	0.413883	-0.379586	0.915747	0.131610	-0.339900	-0.270349	0.900766
312	1096758955													0.040130	-0.437122	0.351428	0.860446	0.297472	0.413695	-0.379809	0.915664	0.131547	-0.339674	-0.270314	0.900862
313	1096775622													-0.052573	-0.426764	0.292436	0.860382	0.297693	0.413668	-0.380077	0.915537	0.131658	-0.339534	-0.270502	0.900858
314	1096792289													-0.094864	-0.444245	0.271854	0.860229	0.298044	0.413734	-0.380513	0.915340	0.131769	-0.339434	-0.270783	0.900811
315	1096808956													-0.154691	-0.497223	0.288130	0.860032	0.298841	0.413569	-0.381335	0.914987	0.131839	-0.339012	-0.271094	0.900877
316	1096825623													-0.137369	-0.475521	0.317329	0.859832	0.300068	0.413096	-0.382507	0.914491	0.131889	-0.338196	-0.271415	0.901087
317	1096842290													-0.151925	-0.473859	0.337665	0.859729	0.301263	0.412440	-0.383647	0.913983	0.132100	-0.337166	-0.271801	0.901356
318	1096858957													-0.084730	-0.403964	0.302880	0.859795	0.302182	0.411629	-0.384506	0.913567	0.132481	-0.336017	-0.272180	0.901671
319	1096875624													-0.018234	-0.324423	0.256958	0.859927	0.302857	0.410857	-0.385154	0.913224	0.132962	-0.334935	-0.272581	0.901952
320	1096892291													0.046319	-0.251637	0.264341	0.860098	0.303120	0.410305	-0.385481	0.912998	0.133565	-0.334121	-0.273044	0.902114
321	1096908958													0.037828	-0.204313	0.250094	0.860284	0.303132	0.409904	-0.385589	0.912863	0.134174	-0.333514	-0.273482	0.902206
322	1096925625													0.017895	-0.120000	0.256474	0.860494	0.302893	0.409641	-0.385453	0.912840	0.134720	-0.333131	-0.273823	0.902244
323	1096942292													-0.062097	-0.084119	0.223036	0.860636	0.302829	0.409391	-0.385407	0.912818	0.135000	-0.332818	-0.273968	0.902316
324	1096958959													-0.107967	-0.037150	0.226655	0.860842	0.302985	0.408842	-0.385401	0.912818	0.135012	-0.332291	-0.273792	0.902563
325	1096975626													-0.115092	-0.066477	0.272799	0.861123	0.303230	0.408068	-0.385350	0.912865	0.134845	-0.331621	-0.273367	0.902938
326	1096992293													-0.127940	-0.089007	0.287212	0.861505	0.303514	0.407049	-0.385231	0.912953	0.134590	-0.330766	-0.272757	0.903436
327	1097008960													-0.076381	-0.106893	0.299644	0.861963	0.303767	0.405889	-0.384989	0.913111	0.134209	-0.329854	-0.271946	0.904014
328	1097025627													-0.027343	-0.079036	0.298944	0.862437	0.303933	0.404755	-0.384649	0.913317	0.133781	-0.329010	-0.271066	0.904586
329	1097042294													0.016672	-0.085655	0.245658	0.862942	0.303841	0.403746	-0.384092	0.913608	0.133393	-0.328335	-0.270186	0.905094
330	1097058961													0.012963	-0.101463	0.178154	0.863373	0.303670	0.402953	-0.383517	0.913907	0.132997	-0.327874	-0.269365	0.905506
331	1097075628													0.005254	-0.148880	0.168726	0.863683	0.303542	0.402384	-0.383071	0.914147	0.132633	-0.327579	-0.268694	0.905812
332	1097092295													-0.039704	-0.201420	0.191606	0.863918	0.303373	0.402008	-0.382687	0.914343	0.132393	-0.327409	-0.268220	0.906014
333	1097108962													-0.030056	-0.217138	0.203496	0.864088	0.303000	0.401924	-0.382267	0.914518	0.132398	-0.327451	-0.268046	0.906051
334	1097125629													-0.008819	-0.212361	0.225422	0.864245	0.302425	0.402020	-0.381767	0.914696	0.132612	-0.327620	-0.268087	0.905977
335	1097142296													-0.052876	-0.193138	0.272522	0.864322	0.301792	0.402328	-0.381341	0.914814	0.133021	-0.327911	-0.268397	0.905780
336	1097158963													-0.102123	-0.167274	0.262772	0.864298	0.301350	0.402712	-0.381146	0.914834	0.133441	-0.328202	-0.268825	0.905548
337	1097175630													-0.105355	-0.177115	0.264224	0.864303	0.300944	0.403006	-0.380997	0.914820	0.133961	-0.328363	-0.269327	0.905340
338	1097192297													-0.113086	-0.180875	0.249482	0.864339	0.300514	0.403248	-0.380825	0.914808	0.134531	-0.328466	-0.269848	0.905148
339	1097208964													-0.098183	-0.178946	0.238459	0.864381	0.299946	0.403582	-0.380581	0.914807	0.135224	-0.328640	-0.270481	0.904896
340	1097225631													-0.129506	-0.157805	0.232568	0.864454	0.299351	0.403866	-0.380307	0.914813	0.135956	-0.328763	-0.271121	0.904659
341	1097242298													-0.173955	-0.126464	0.260549	0.864549	0.298761	0.404099	-0.380018	0.914826	0.136674	-0.328848	-0.271726	0.904447
342	1097258965													-0.188393	-0.141909	0.303770	0.864692	0.298227	0.404188	-0.379738	0.914836	0.137381	-0.328796	-0.272278	0.904300
343	1097275632													-0.205483	-0.126240	0.293983	0.864942	0.297714	0.404032	-0.379411	0.914862	0.138113	-0.328516	-0.272754	0.904258
344	1097292299													-0.219456	-0.129246	0.273817	0.865232	0.297344	0.403683	-0.379153	0.914867	0.138786	-0.328049	-0.273140	0.904311
345	1097308966													-0.217835	-0.100082	0.263026	0.865598	0.297091	0.403083	-0.378954	0.914840	0.139503	-0.327312	-0.273504	0.904468
346	1097325633													-0.213690	-0.049361	0.320714	0.866104	0.296631	0.402336	-0.378544	0.914877	0.140374	-0.326449	-0.273881	0.904666
347	1097342300													-0.195264	-0.094503	0.231868	0.866675	0.296085	0.401508	-0.378043	0.914939	0.141318	-0.325513	-0.274264	0.904887
348	1097358967													-0.112810	-0.073324	0.283266	0.867342	0.295243	0.400687	-0.377289	0.915078	0.142425	-0.324610	-0.274706	0.905077
349	1097375634													-0.068229	-0.099132	0.291038	0.867978	0.294326	0.399983	-0.376487	0.915238	0.143517	-0.323839	-0.275158	0.905216
350	1097392301													-0.057527	-0.129382	0.208294	0.868421	0.293835	0.399382	-0.376131	0.915228	0.144507	-0.323065	-0.275713	0.905324
351	1097408968													-0.064913	-0.193800	0.188711	0.868726	0.293801	0.398744	-0.376209	0.915055	0.145402	-0.322153	-0.276325	0.905462
352	1097425635													-0.038383	-0.301490	0.207304	0.868920	0.294018	0.398160	-0.376593	0.914742	0.146369	-0.321178	-0.277128	0.905563
353	1097442302													0.022269	-0.341394	0.275320	0.869238	0.293650	0.397737	-0.376545	0.914546	0.147715	-0.320372	-0.278165	0.905531
354	1097458969													0.096444	-0.388230	0.315498	0.869597	0.292764	0.397607	-0.376122	0.914467	0.149271	-0.319897	-0.279354	0.905333
355	1097475636													0.093242	-0.390198	0.305266	0.869856	0.291758	0.397778	-0.375653	0.914413	0.150779	-0.319742	-0.280582	0.905007
356	1097492303													0.059773	-0.394012	0.243921	0.869985	0.290980	0.398067	-0.375361	0.914331	0.152000	-0.319736	-0.281656	0.904676
357	1097508970													0.128562	-0.414024	0.158521	0.870135	0.290571	0.398036	-0.375310	0.914168	0.153100	-0.319385	-0.282605	0.904504
358	1097525637													0.176420	-0.430229	0.254905	0.870388	0.289948	0.397939	-0.375065	0.914058	0.154351	-0.318985	-0.283598	0.904334
359	1097542304													0.152806	-0.388508	0.307075	0.870522	0.289461	0.398001	-0.374969	0.913907	0.155473	-0.318733	-0.284580	0.904115
360	1097558971													0.086705	-0.365133	0.163671	0.870491	0.289251	0.398221	-0.375155	0.913669	0.156420	-0.318598	-0.285557	0.903854
361	1097575638													0.061965	-0.360250	0.281860	0.870514	0.288772	0.398518	-0.375081	0.913539	0.157354	-0.318622	-0.286455	0.903562
362	1097592305													0.063772	-0.275685	0.322136	0.870502	0.288316	0.398874	-0.374998	0.913438	0.158139	-0.318753	-0.287237	0.903267
363	1097608972													0.035367	-0.214568	0.315550	0.870440	0.287951	0.399273	-0.374949	0.913359	0.158709	-0.318980	-0.287853	0.902991
364	1097625639													-0.031452	-0.145451	0.262317	0.870376	0.287810	0.399514	-0.375027	0.913256	0.159119	-0.319062	-0.288321	0.902812
365	1097642306													-0.117321	-0.102157	0.260017	0.870405	0.287597	0.399603	-0.375016	0.913170	0.159636	-0.318994	-0.288806	0.902681
366	1097658973													-0.175127	-0.076046	0.229882	0.870511	0.287214	0.399648	-0.374852	0.913127	0.160265	-0.318899	-0.289322	0.902550
367	1097675640													-0.203937	-0.062578	0.245070	0.870592	0.286933	0.399675	-0.374767	0.913062	0.160833	-0.318779	-0.289805	0.902437
368	1097692307													-0.200693	-0.043633	0.270721	0.870654	0.286781	0.399649	-0.374750	0.912993	0.161264	-0.318629	-0.290174	0.902372
369	1097708974													-0.165780	-0.016722	0.286158	0.870765	0.286538	0.399579	-0.374622	0.912971	0.161688	-0.318475	-0.290484	0.902327
370	1097725641													-0.139451	0.001875	0.241047	0.870883	0.286353	0.399456	-0.374533	0.912934	0.162103	-0.318258	-0.290782	0.902307
371	1097742308													-0.121274	-0.008867	0.202583	0.870989	0.286197	0.399335	-0.374489	0.912871	0.162558	-0.318018	-0.291133	0.902278
372	1097758975													-0.105146	-0.061093	0.208680	0.871058	0.285975	0.399345	-0.374434	0.912805	0.163053	-0.317895	-0.291557	0.902185
373	1097775642													-0.088252	-0.105492	0.206169	0.871095	0.285835	0.399363	-0.374467	0.912703	0.163545	-0.317753	-0.292012	0.902088
374	1097792309													-0.076243	-0.128224	0.231092	0.871096	0.285842	0.399357	-0.374637	0.912550	0.164011	-0.317552	-0.292483	0.902006
375	1097808976													-0.045439	-0.183349	0.237227	0.871125	0.285798	0.399325	-0.374767	0.912401	0.164543	-0.317319	-0.292991	0.901923
376	1097825643													0.029736	-0.222904	0.287952	0.871206	0.285484	0.399373	-0.374693	0.912309	0.165221	-0.317183	-0.293584	0.901778
377	1097842310													0.025047	-0.231698	0.277400	0.871289	0.285041	0.399509	-0.374524	0.912250	0.165929	-0.317156	-0.294198	0.901587
378	1097858977													0.006814	-0.258126	0.236400	0.871302	0.284706	0.399719	-0.374480	0.912146	0.166598	-0.317170	-0.294844	0.901371
379	1097875644													0.014996	-0.264922	0.244181	0.871320	0.284302	0.399967	-0.374386	0.912058	0.167288	-0.317232	-0.295503	0.901133
380	1097892311													0.029915	-0.277874	0.254827	0.871366	0.283773	0.400242	-0.374177	0.912013	0.168001	-0.317351	-0.296152	0.900878
381	1097908978													0.015995	-0.257533	0.226486	0.871437	0.283104	0.400562	-0.373851	0.912008	0.168751	-0.317541	-0.296806	0.900596
382	1097925645													-0.002743	-0.245118	0.249175	0.871524	0.282423	0.400853	-0.373493	0.912021	0.169470	-0.317724	-0.297413	0.900332
383	1097942312													-0.034640	-0.236154	0.272551	0.871620	0.281703	0.401151	-0.373093	0.912053	0.170177	-0.317932	-0.297997	0.900065
384	1097958979													-0.069552	-0.201662	0.261697	0.871691	0.281125	0.401403	-0.372792	0.912061	0.170792	-0.318090	-0.298518	0.899837
385	1097975646													-0.073109	-0.165415	0.270415	0.871702	0.280854	0.401569	-0.372731	0.911999	0.171259	-0.318131	-0.298964	0.899674
386	1097992313													-0.094438	-0.151020	0.249206	0.871707	0.280836	0.401570	-0.372840	0.911887	0.171619	-0.317990	-0.299323	0.899605
387	1098008980													-0.087654	-0.141781	0.243364	0.871707	0.280918	0.401512	-0.373010	0.911762	0.171911	-0.317790	-0.299624	0.899575
