// Start Time: Unknown
// Update Rate: 100.0Hz
//Filter Profile: human (46.1)
// Option Flags: AHS Disabled ICC Disabled
// Firmware Version: 4.0.2
PacketCounter	SampleTimeFine	Year	Month	Day	Second	UTC_Nano	UTC_Year	UTC_Month	UTC_Day	UTC_Hour	UTC_Minute	UTC_Second	UTC_Valid	Acc_X	Acc_Y	Acc_Z	Mat[1][1]	Mat[1][2]	Mat[1][3]	Mat[2][1]	Mat[2][2]	Mat[2][3]	Mat[3][1]	Mat[3][2]	Mat[3][3]
1	1091575518													-0.741914	-0.059095	0.129842	-0.134477	-0.807595	0.574200	0.081683	0.568457	0.818648	-0.987544	0.156992	-0.010478
2	1091592185													-0.694477	-0.072810	0.130331	-0.134448	-0.807622	0.574169	0.081599	0.568439	0.818669	-0.987555	0.156920	-0.010524
3	1091608852													-0.701330	-0.089251	0.104068	-0.134397	-0.807648	0.574145	0.081515	0.568427	0.818686	-0.987569	0.156830	-0.010559
4	1091625519													-0.704253	-0.042507	0.114437	-0.134362	-0.807695	0.574087	0.081403	0.568386	0.818725	-0.987583	0.156737	-0.010621
5	1091642186													-0.701014	-0.062486	0.117286	-0.134347	-0.807731	0.574040	0.081302	0.568354	0.818758	-0.987593	0.156668	-0.010687
6	1091658853													-0.704215	-0.059458	0.106721	-0.134323	-0.807737	0.574037	0.081207	0.568365	0.818759	-0.987605	0.156594	-0.010750
7	1091675520													-0.697150	-0.058636	0.103788	-0.134276	-0.807722	0.574069	0.081123	0.568411	0.818736	-0.987618	0.156507	-0.010799
8	1091692187													-0.693376	-0.052946	0.115712	-0.134252	-0.807732	0.574060	0.081037	0.568415	0.818741	-0.987628	0.156438	-0.010855
9	1091708854													-0.694885	-0.066395	0.136223	-0.134234	-0.807765	0.574018	0.080912	0.568392	0.818769	-0.987641	0.156352	-0.010940
10	1091725521													-0.701502	-0.059563	0.125987	-0.134247	-0.807807	0.573956	0.080779	0.568350	0.818812	-0.987650	0.156287	-0.011045
11	1091742188													-0.694179	-0.042674	0.138325	-0.134275	-0.807800	0.573960	0.080705	0.568366	0.818808	-0.987652	0.156267	-0.011124
12	1091758855													-0.728427	-0.070006	0.120471	-0.134266	-0.807791	0.573974	0.080676	0.568386	0.818797	-0.987656	0.156242	-0.011146
13	1091775522													-0.674206	-0.057158	0.117278	-0.134224	-0.807795	0.573978	0.080641	0.568394	0.818795	-0.987664	0.156188	-0.011150
14	1091792189													-0.688728	-0.056860	0.116533	-0.134200	-0.807787	0.573996	0.080605	0.568418	0.818782	-0.987671	0.156147	-0.011170
15	1091808856													-0.699770	-0.037456	0.120222	-0.134204	-0.807840	0.573919	0.080556	0.568348	0.818835	-0.987674	0.156124	-0.011199
16	1091825523													-0.687811	-0.025529	0.114103	-0.134211	-0.807881	0.573861	0.080510	0.568296	0.818876	-0.987677	0.156104	-0.011230
17	1091842190													-0.688053	-0.062543	0.115238	-0.134214	-0.807896	0.573839	0.080476	0.568279	0.818891	-0.987679	0.156087	-0.011255
18	1091858857													-0.676636	-0.052210	0.153782	-0.134180	-0.807897	0.573845	0.080444	0.568290	0.818887	-0.987686	0.156041	-0.011263
19	1091875524													-0.705497	-0.050774	0.117852	-0.134164	-0.807872	0.573884	0.080432	0.568331	0.818859	-0.987690	0.156020	-0.011271
20	1091892191													-0.714054	-0.065875	0.115373	-0.134159	-0.807926	0.573809	0.080391	0.568262	0.818911	-0.987694	0.155994	-0.011287
21	1091908858													-0.682368	-0.061730	0.134588	-0.134138	-0.807956	0.573771	0.080394	0.568223	0.818938	-0.987696	0.155978	-0.011266
22	1091925525													-0.663733	-0.043317	0.118051	-0.134086	-0.807942	0.573804	0.080425	0.568250	0.818916	-0.987701	0.155953	-0.011215
23	1091942192													-0.692968	-0.068680	0.108803	-0.134043	-0.807862	0.573926	0.080478	0.568365	0.818831	-0.987702	0.155947	-0.011171
24	1091958859													-0.690068	-0.064742	0.100494	-0.133985	-0.807801	0.574026	0.080541	0.568456	0.818762	-0.987705	0.155934	-0.011103
25	1091975526													-0.710385	-0.070259	0.112094	-0.133918	-0.807786	0.574063	0.080592	0.568485	0.818737	-0.987710	0.155908	-0.011029
26	1091992193													-0.698744	-0.052433	0.131535	-0.133881	-0.807773	0.574089	0.080660	0.568500	0.818720	-0.987709	0.155917	-0.010956
27	1092008860													-0.665807	-0.076399	0.130337	-0.133807	-0.807735	0.574160	0.080744	0.568558	0.818671	-0.987713	0.155904	-0.010858
28	1092025527													-0.695061	-0.054485	0.111978	-0.133718	-0.807648	0.574303	0.080868	0.568682	0.818573	-0.987714	0.155900	-0.010730
29	1092042194													-0.663875	-0.039573	0.114564	-0.133633	-0.807552	0.574458	0.081002	0.568817	0.818465	-0.987715	0.155906	-0.010600
30	1092058861													-0.674481	-0.063989	0.127582	-0.133562	-0.807355	0.574752	0.081198	0.569083	0.818261	-0.987709	0.155957	-0.010452
31	1092075528													-0.684449	-0.074921	0.143682	-0.133477	-0.807105	0.575122	0.081386	0.569428	0.818002	-0.987705	0.155991	-0.010319
32	1092092195													-0.714490	-0.089497	0.140536	-0.133339	-0.806888	0.575459	0.081562	0.569740	0.817768	-0.987709	0.155975	-0.010157
33	1092108862													-0.672558	-0.078090	0.109946	-0.133165	-0.806675	0.575797	0.081742	0.570053	0.817532	-0.987717	0.155933	-0.009972
34	1092125529													-0.690057	-0.080219	0.118232	-0.132996	-0.806447	0.576156	0.081905	0.570388	0.817281	-0.987726	0.155885	-0.009808
35	1092142196													-0.661372	-0.069691	0.119302	-0.132858	-0.806158	0.576591	0.082118	0.570795	0.816976	-0.987727	0.155890	-0.009634
36	1092158863													-0.714830	-0.090741	0.120865	-0.132700	-0.805799	0.577130	0.082416	0.571292	0.816598	-0.987724	0.155928	-0.009400
37	1092175530													-0.744242	-0.121680	0.127196	-0.132448	-0.805485	0.577626	0.082819	0.571729	0.816252	-0.987724	0.155949	-0.009016
38	1092192197													-0.726359	-0.119500	0.132173	-0.132111	-0.805184	0.578123	0.083236	0.572163	0.815905	-0.987734	0.155911	-0.008569
39	1092208864													-0.696243	-0.067922	0.124403	-0.131741	-0.804769	0.578784	0.083783	0.572744	0.815441	-0.987737	0.155920	-0.008028
40	1092225531													-0.699184	-0.080353	0.057293	-0.131357	-0.804304	0.579518	0.084307	0.573402	0.814925	-0.987744	0.155904	-0.007512
41	1092242198													-0.676144	-0.097125	0.036387	-0.130966	-0.803868	0.580210	0.084835	0.574017	0.814437	-0.987750	0.155886	-0.006980
42	1092258865													-0.675357	0.048237	0.053970	-0.130622	-0.803565	0.580708	0.085282	0.574448	0.814086	-0.987758	0.155861	-0.006505
43	1092275532													-0.435765	0.049317	0.056220	-0.130238	-0.803058	0.581495	0.085797	0.575162	0.813528	-0.987764	0.155842	-0.006008
44	1092292199													-0.415397	-0.225410	-0.014692	-0.129888	-0.801764	0.583355	0.086339	0.576959	0.812197	-0.987763	0.155860	-0.005716
45	1092308866													-0.715465	0.010345	0.171131	-0.129756	-0.800589	0.584996	0.086616	0.578576	0.811016	-0.987756	0.155904	-0.005730
46	1092325533													-0.780839	0.053031	0.208200	-0.129788	-0.799774	0.586103	0.086743	0.579678	0.810215	-0.987740	0.155997	-0.005860
47	1092342200													-0.747635	0.068849	0.223895	-0.129969	-0.799526	0.586401	0.086683	0.579991	0.809998	-0.987722	0.156106	-0.006076
48	1092358867													-0.648875	-0.011603	0.135923	-0.130322	-0.799683	0.586109	0.086330	0.579753	0.810206	-0.987706	0.156187	-0.006518
49	1092375534													-0.544034	-0.103667	0.131074	-0.130780	-0.799901	0.585709	0.085810	0.579433	0.810490	-0.987691	0.156255	-0.007139
50	1092392201													-0.570195	-0.068336	0.080585	-0.131347	-0.800140	0.585256	0.085031	0.579101	0.810809	-0.987683	0.156262	-0.008027
51	1092408868													-0.581953	0.102868	-0.049865	-0.132010	-0.800265	0.584935	0.084126	0.578926	0.811029	-0.987672	0.156273	-0.009101
52	1092425535													-0.588553	0.038238	0.025595	-0.132744	-0.800348	0.584656	0.083208	0.578795	0.811217	-0.987652	0.156332	-0.010236
53	1092442202													-0.827869	0.008853	0.233283	-0.133263	-0.800547	0.584264	0.082550	0.578508	0.811489	-0.987637	0.156372	-0.011008
54	1092458869													-1.000014	-0.200360	0.249352	-0.133376	-0.800672	0.584067	0.082346	0.578342	0.811628	-0.987639	0.156347	-0.011204
55	1092475536													-0.937267	-0.266110	0.176658	-0.132863	-0.800643	0.584224	0.082656	0.578446	0.811522	-0.987682	0.156111	-0.010676
56	1092492203													-0.990752	-0.396991	0.270568	-0.131799	-0.800398	0.584800	0.083394	0.578902	0.811121	-0.987762	0.155674	-0.009550
57	1092508870													-0.938895	-0.173727	0.324382	-0.130447	-0.800323	0.585206	0.084372	0.579148	0.810845	-0.987859	0.155147	-0.008024
58	1092525537													-0.925759	-0.096810	0.166383	-0.128935	-0.800344	0.585513	0.085893	0.579209	0.810641	-0.987926	0.154812	-0.005936
59	1092542204													-0.858974	-0.206165	0.162081	-0.127386	-0.800545	0.585577	0.087963	0.578942	0.810610	-0.987945	0.154769	-0.003331
60	1092558871													-0.853392	-0.113367	0.187174	-0.125517	-0.800798	0.585635	0.090349	0.578624	0.810575	-0.987969	0.154653	-0.000276
61	1092575538													-0.913461	-0.307613	0.197590	-0.123305	-0.800929	0.585925	0.092223	0.578627	0.810361	-0.988074	0.153957	0.002516
62	1092592205													-0.709761	-0.365123	0.239335	-0.120730	-0.800947	0.586437	0.093558	0.578948	0.809979	-0.988267	0.152654	0.005039
63	1092608872													-0.590272	-0.312367	0.066009	-0.118150	-0.800880	0.587054	0.094078	0.579508	0.809519	-0.988529	0.150874	0.006876
64	1092625539													0.002275	0.181694	0.161094	-0.115995	-0.801548	0.586571	0.093924	0.579059	0.809857	-0.988799	0.149033	0.008116
65	1092642206													-0.780627	0.449469	0.001158	-0.113840	-0.802321	0.585936	0.093713	0.578468	0.810304	-0.989069	0.147155	0.009335
66	1092658873													-0.985939	-0.029322	0.049447	-0.111618	-0.803236	0.585109	0.093747	0.577652	0.810882	-0.989319	0.145361	0.010824
67	1092675540													-0.430265	-0.159173	0.052622	-0.109273	-0.804566	0.583724	0.094091	0.576231	0.811853	-0.989549	0.143636	0.012736
68	1092692207													-0.392747	0.069221	-0.164841	-0.106923	-0.805359	0.583065	0.094527	0.575537	0.812294	-0.989764	0.141968	0.014590
69	1092708874													-0.464148	-0.008105	-0.024759	-0.104914	-0.805866	0.582728	0.094846	0.575183	0.812508	-0.989948	0.140513	0.016088
70	1092725541													-0.401285	-0.160030	0.161092	-0.103269	-0.806036	0.582787	0.095132	0.575230	0.812441	-0.990094	0.139342	0.017276
71	1092742208													-0.512773	-0.014935	0.081032	-0.102004	-0.806248	0.582717	0.095052	0.575193	0.812476	-0.990233	0.138264	0.017963
72	1092758875													-0.554256	0.147787	-0.023617	-0.101103	-0.806628	0.582348	0.094327	0.574939	0.812741	-0.990394	0.137102	0.017959
73	1092775542													-0.056670	0.246360	0.082077	-0.100416	-0.807244	0.581613	0.092745	0.574428	0.813284	-0.990613	0.135608	0.017186
74	1092792209													-0.216644	0.245622	0.009136	-0.100208	-0.807590	0.581168	0.090410	0.574301	0.813637	-0.990850	0.134076	0.015465
75	1092808876													-0.037518	0.099457	-0.000139	-0.100386	-0.808003	0.580563	0.087055	0.574140	0.814116	-0.991133	0.132267	0.012706
76	1092825543													-0.186181	-0.274458	0.102699	-0.100989	-0.807758	0.580800	0.083162	0.574888	0.813995	-0.991406	0.130505	0.009117
77	1092842210													-0.654115	-0.318820	0.205969	-0.101685	-0.807083	0.581616	0.078702	0.576287	0.813449	-0.991699	0.128490	0.004919
78	1092858877													-0.390712	-0.247208	0.160620	-0.102088	-0.806600	0.582215	0.073698	0.577532	0.813035	-0.992042	0.125909	0.000486
79	1092875544													-0.520844	-0.134502	0.068096	-0.102558	-0.805711	0.583362	0.068634	0.579325	0.812202	-0.992356	0.123337	-0.004115
80	1092892211													-1.044882	-0.036030	0.060422	-0.103393	-0.804371	0.585062	0.063652	0.581658	0.810939	-0.992602	0.121086	-0.008940
81	1092908878													-0.675921	-0.274812	0.049798	-0.104305	-0.803902	0.585545	0.058356	0.582795	0.810521	-0.992832	0.118711	-0.013876
82	1092925545													-0.378410	0.107832	-0.001151	-0.105312	-0.803780	0.585532	0.052888	0.583446	0.810428	-0.993032	0.116316	-0.018934
83	1092942212													-0.780288	0.115115	0.009322	-0.107074	-0.803161	0.586062	0.047166	0.584683	0.809889	-0.993132	0.114360	-0.024723
84	1092958879													-0.470864	-0.031557	0.140941	-0.108974	-0.803230	0.585616	0.041147	0.584975	0.810007	-0.993193	0.112366	-0.030696
85	1092975546													-0.128807	0.148226	-0.145062	-0.110520	-0.803657	0.584741	0.035211	0.584809	0.810406	-0.993250	0.110155	-0.036335
86	1092992213													-0.542508	0.396063	-0.101851	-0.111963	-0.804603	0.583163	0.029251	0.583930	0.811277	-0.993282	0.107891	-0.041843
87	1093008880													-0.859863	-0.107766	-0.002525	-0.113182	-0.805351	0.581893	0.023832	0.583288	0.811916	-0.993288	0.105762	-0.046825
88	1093025547													-1.155503	-0.676167	0.218770	-0.114642	-0.805216	0.581794	0.019081	0.583763	0.811700	-0.993224	0.104156	-0.051559
89	1093042214													-1.315126	-0.823572	0.490317	-0.116274	-0.804481	0.582487	0.014575	0.585020	0.810888	-0.993110	0.102775	-0.056297
90	1093058881													-0.720624	-0.482734	0.490576	-0.117163	-0.804203	0.582693	0.009735	0.585776	0.810415	-0.993065	0.100624	-0.060802
91	1093075548													-0.309302	0.131919	0.074150	-0.117484	-0.803736	0.583272	0.004700	0.586882	0.809659	-0.993064	0.097864	-0.065172
92	1093092215													0.266518	0.684676	-0.253365	-0.117367	-0.803321	0.583867	-0.000402	0.587969	0.808883	-0.993089	0.094701	-0.069331
93	1093108882													-1.291905	0.326933	-0.015036	-0.118235	-0.800904	0.587004	-0.004586	0.591584	0.806230	-0.992975	0.092632	-0.073618
94	1093125549													-1.406065	-0.268456	0.313376	-0.119037	-0.799221	0.589132	-0.007926	0.594096	0.804355	-0.992858	0.091078	-0.077054
95	1093142216													-0.873918	0.157529	0.271019	-0.118719	-0.798865	0.589678	-0.010951	0.594895	0.803729	-0.992868	0.088960	-0.079373
96	1093158883													-0.963804	-0.201195	0.209625	-0.118552	-0.798443	0.590283	-0.013615	0.595727	0.803072	-0.992854	0.087169	-0.081496
97	1093175550													-0.626170	0.088471	0.039650	-0.118731	-0.797434	0.591610	-0.015520	0.597242	0.801911	-0.992805	0.086030	-0.083287
98	1093192217													-0.543170	-0.085232	-0.028121	-0.118965	-0.796368	0.592996	-0.017216	0.598802	0.800712	-0.992749	0.085048	-0.084947
99	1093208884													-1.085824	-0.218002	0.030045	-0.119681	-0.794706	0.595079	-0.018441	0.601063	0.798989	-0.992641	0.084650	-0.086591
100	1093225551													-1.057228	-0.081535	0.290016	-0.120023	-0.793968	0.595995	-0.019755	0.602126	0.798157	-0.992575	0.084023	-0.087954
101	1093242218													-0.802548	-0.209783	0.312434	-0.119798	-0.793864	0.596179	-0.021156	0.602408	0.797908	-0.992573	0.082975	-0.088962
102	1093258885													-0.489722	-0.080351	0.138446	-0.119251	-0.793515	0.596752	-0.022546	0.603050	0.797384	-0.992608	0.081634	-0.089805
103	1093275552													-0.504880	0.077894	0.055355	-0.118456	-0.792584	0.598146	-0.024052	0.604501	0.796241	-0.992668	0.079933	-0.090670
104	1093292219													-0.565930	-0.081374	0.050037	-0.117206	-0.791131	0.600312	-0.025527	0.606678	0.794538	-0.992780	0.077800	-0.091301
105	1093308886													-0.325096	-0.028040	-0.046309	-0.115172	-0.789432	0.602937	-0.026824	0.609226	0.792543	-0.992983	0.075105	-0.091342
106	1093325553													-0.504277	-0.009617	0.155334	-0.112911	-0.787791	0.605505	-0.028325	0.611707	0.790577	-0.993201	0.072114	-0.091383
107	1093342220													-0.135842	0.288973	0.035206	-0.110202	-0.786673	0.607455	-0.030131	0.613541	0.789088	-0.993452	0.068656	-0.091316
108	1093358887													-0.397652	0.228918	-0.065093	-0.107949	-0.784955	0.610076	-0.031646	0.616064	0.787060	-0.993653	0.065656	-0.091344
109	1093375554													-0.772756	0.422668	0.094152	-0.106313	-0.783463	0.612277	-0.032741	0.618192	0.785345	-0.993794	0.063446	-0.091373
110	1093392221													-1.351906	0.206984	0.118651	-0.105092	-0.782006	0.614347	-0.033344	0.620192	0.783741	-0.993903	0.061880	-0.091252
111	1093408888													-1.507305	-0.064997	0.372899	-0.104158	-0.781984	0.614534	-0.033546	0.620306	0.783642	-0.993995	0.061007	-0.090842
112	1093425555													-0.933999	-0.087381	0.175748	-0.102948	-0.783336	0.613014	-0.033692	0.618681	0.784920	-0.994116	0.060152	-0.090084
113	1093442222													-0.633677	0.145804	0.230038	-0.102333	-0.785108	0.610846	-0.033768	0.616458	0.786664	-0.994177	0.059875	-0.089595
114	1093458889													-0.264432	0.092048	0.013713	-0.102113	-0.786625	0.608928	-0.033808	0.614519	0.788178	-0.994198	0.059897	-0.089345
115	1093475556													-0.254861	-0.003660	0.006013	-0.102187	-0.787433	0.607871	-0.033666	0.613458	0.789010	-0.994195	0.060162	-0.089197
116	1093492223													-0.485829	-0.079582	-0.006145	-0.102548	-0.787476	0.607755	-0.033331	0.613353	0.789105	-0.994169	0.060664	-0.089145
117	1093508890													-0.781964	-0.191095	0.226473	-0.102974	-0.787441	0.607728	-0.033058	0.613348	0.789121	-0.994135	0.061169	-0.089190
118	1093525557													-0.914814	-0.144649	0.159019	-0.103250	-0.787570	0.607514	-0.032922	0.613150	0.789280	-0.994110	0.061493	-0.089236
119	1093542224													-0.983785	-0.173642	0.287848	-0.103384	-0.788246	0.606614	-0.033124	0.612272	0.789953	-0.994090	0.061575	-0.089409
120	1093558891													-0.834746	-0.214837	0.085629	-0.103401	-0.788973	0.605665	-0.033551	0.611349	0.790649	-0.994074	0.061433	-0.089685
121	1093575558													-0.931310	-0.360524	0.143624	-0.103723	-0.789613	0.604775	-0.034234	0.610529	0.791254	-0.994017	0.061367	-0.090357
122	1093592225													-1.008180	-0.183779	0.209894	-0.104114	-0.790666	0.603331	-0.035183	0.609176	0.792254	-0.993943	0.061258	-0.091242
123	1093608892													-0.630488	-0.180864	0.332973	-0.103931	-0.792510	0.600938	-0.036442	0.606839	0.793989	-0.993917	0.060621	-0.091950
124	1093625559													-0.159446	-0.216074	0.046806	-0.102974	-0.794094	0.599008	-0.037502	0.604880	0.795433	-0.993977	0.059445	-0.092067
125	1093642226													-0.528788	-0.167781	0.105302	-0.101785	-0.794349	0.598874	-0.038135	0.604673	0.795560	-0.994075	0.058138	-0.091839
126	1093658893													-0.725334	-0.363933	0.477108	-0.100133	-0.793930	0.599707	-0.038139	0.605356	0.795041	-0.994243	0.056738	-0.090896
127	1093675560													-1.219570	-0.315370	0.562144	-0.098596	-0.792744	0.601527	-0.037239	0.606989	0.793838	-0.994431	0.055869	-0.089367
128	1093692227													-1.581162	0.022867	0.472827	-0.097042	-0.792623	0.601940	-0.035685	0.607176	0.793765	-0.994640	0.055548	-0.087207
129	1093708894													-1.373519	0.317956	-0.173701	-0.095493	-0.793703	0.600763	-0.033499	0.605741	0.794956	-0.994866	0.055788	-0.084432
130	1093725561													-0.823595	0.456665	-0.302469	-0.094373	-0.795844	0.598102	-0.030955	0.602838	0.797263	-0.995056	0.056725	-0.081527
131	1093742228													-0.074948	0.487502	-0.365396	-0.093665	-0.798495	0.594670	-0.028122	0.599180	0.800121	-0.995207	0.058220	-0.078577
132	1093758895													0.273116	0.562380	-0.350970	-0.094038	-0.800290	0.592193	-0.024875	0.596532	0.802204	-0.995258	0.060707	-0.076004
133	1093775562													0.409468	0.434798	-0.295162	-0.095532	-0.801031	0.590951	-0.022188	0.595232	0.803247	-0.995179	0.063624	-0.074637
134	1093792229													0.420401	0.274294	-0.257963	-0.097860	-0.801039	0.590559	-0.020193	0.594883	0.803558	-0.994995	0.066711	-0.074391
135	1093808896													0.369062	0.216922	-0.117204	-0.100650	-0.800744	0.590491	-0.018913	0.594937	0.803550	-0.994742	0.069709	-0.075025
136	1093825563													0.177244	0.029707	-0.065255	-0.104022	-0.800022	0.590884	-0.018275	0.595544	0.803114	-0.994407	0.072744	-0.076570
137	1093842230													-0.170295	-0.065960	0.103257	-0.107872	-0.799141	0.591386	-0.018270	0.596350	0.802517	-0.993997	0.075764	-0.078930
138	1093858897													-0.449521	-0.046231	0.107911	-0.111922	-0.798524	0.591467	-0.018547	0.596782	0.802189	-0.993544	0.078813	-0.081603
139	1093875564													-0.640691	0.116063	0.014624	-0.115783	-0.798645	0.590560	-0.018947	0.596226	0.802593	-0.993094	0.081737	-0.084165
140	1093892231													-0.774350	0.300878	0.035096	-0.119381	-0.799496	0.588689	-0.019244	0.594681	0.803731	-0.992662	0.084621	-0.086379
141	1093908898													-0.921644	0.499071	0.193866	-0.122651	-0.801527	0.585244	-0.019322	0.591513	0.806064	-0.992262	0.087556	-0.088037
142	1093925565													-1.050131	0.476202	0.182872	-0.125989	-0.803861	0.581321	-0.018958	0.587835	0.808759	-0.991850	0.090874	-0.089300
143	1093942232													-1.217523	0.111446	0.263214	-0.129957	-0.806184	0.577217	-0.018094	0.583985	0.811563	-0.991355	0.095024	-0.090480
144	1093958899													-1.102078	-0.162708	0.306604	-0.134256	-0.808730	0.572653	-0.016884	0.579667	0.814678	-0.990803	0.099706	-0.091478
145	1093975566													-0.753274	-0.440726	0.126769	-0.138687	-0.810717	0.568774	-0.015258	0.576005	0.817304	-0.990219	0.104671	-0.092254
146	1093992233													-0.333742	-0.466619	0.098251	-0.143181	-0.812077	0.565712	-0.013574	0.573159	0.819332	-0.989603	0.109634	-0.093089
147	1094008900													0.053816	-0.309453	-0.025378	-0.147591	-0.812143	0.564483	-0.011818	0.572141	0.820070	-0.988978	0.114364	-0.094041
148	1094025567													0.023106	-0.206473	0.013445	-0.151959	-0.810480	0.565712	-0.010072	0.573599	0.819074	-0.988335	0.118768	-0.095327
149	1094042234													-0.316117	-0.228096	0.246289	-0.156228	-0.807452	0.568871	-0.008499	0.577021	0.816685	-0.987684	0.122754	-0.097010
150	1094058901													-0.510688	-0.261508	0.371184	-0.159971	-0.804364	0.572195	-0.007238	0.580601	0.814156	-0.987095	0.126100	-0.098701
151	1094075568													-0.571785	-0.382877	0.290389	-0.163297	-0.801708	0.574977	-0.006258	0.583630	0.811996	-0.986557	0.128998	-0.100322
152	1094092235													-0.701833	-0.316352	0.298011	-0.166375	-0.799760	0.576804	-0.005536	0.585705	0.810505	-0.986047	0.131654	-0.101874
153	1094108902													-0.874649	-0.156367	0.468684	-0.169204	-0.798839	0.577258	-0.005179	0.586416	0.809994	-0.985567	0.134064	-0.103361
154	1094125569													-0.747064	-0.157440	0.302291	-0.171429	-0.798821	0.576626	-0.005242	0.586021	0.810279	-0.985182	0.135883	-0.104649
155	1094142236													-0.487042	-0.220082	0.122185	-0.173109	-0.798851	0.576082	-0.005544	0.585694	0.810513	-0.984887	0.137114	-0.105818
156	1094158903													-0.395402	-0.326177	-0.021433	-0.174436	-0.798328	0.576407	-0.005963	0.586227	0.810125	-0.984651	0.137877	-0.107019
157	1094175570													-0.538184	-0.269447	-0.007830	-0.175373	-0.797266	0.577591	-0.006460	0.587603	0.809124	-0.984481	0.138167	-0.108200
158	1094192237													-0.642811	-0.276815	0.070221	-0.175702	-0.796094	0.579105	-0.007098	0.589266	0.807908	-0.984418	0.137840	-0.109186
159	1094208904													-0.838718	-0.262686	0.098013	-0.175683	-0.795016	0.580590	-0.007790	0.590867	0.806731	-0.984416	0.137206	-0.109998
160	1094225571													-0.980165	-0.132024	0.260627	-0.175505	-0.794478	0.581379	-0.008613	0.591762	0.806067	-0.984441	0.136462	-0.110700
161	1094242238													-0.889536	-0.123899	0.371410	-0.175126	-0.794707	0.581182	-0.009537	0.591646	0.806142	-0.984500	0.135634	-0.111192
162	1094258905													-0.720826	-0.028566	0.212992	-0.174722	-0.795434	0.580307	-0.010550	0.590852	0.806711	-0.984561	0.134828	-0.111627
163	1094275572													-0.588870	0.086086	0.008490	-0.174606	-0.796155	0.579353	-0.011490	0.589999	0.807322	-0.984571	0.134307	-0.112165
164	1094292239													-0.613630	0.190748	0.070191	-0.174796	-0.796916	0.578248	-0.012211	0.588999	0.808041	-0.984529	0.134182	-0.112686
165	1094308906													-0.588367	0.239162	0.178684	-0.175180	-0.797647	0.577123	-0.012573	0.587952	0.808798	-0.984456	0.134430	-0.113026
166	1094325573													-0.529799	0.190757	0.224754	-0.175753	-0.798121	0.576293	-0.012581	0.587179	0.809359	-0.984354	0.134997	-0.113240
167	1094342240													-0.489493	0.051904	0.119810	-0.176551	-0.797992	0.576228	-0.012352	0.587175	0.809366	-0.984214	0.135777	-0.113523
168	1094358907													-0.514920	-0.065576	0.031116	-0.177430	-0.797503	0.576634	-0.011897	0.587627	0.809045	-0.984062	0.136688	-0.113751
169	1094375574													-0.552358	-0.163421	-0.028331	-0.178296	-0.796698	0.577480	-0.011329	0.588507	0.808413	-0.983912	0.137595	-0.113954
170	1094392241													-0.589627	-0.168705	0.031907	-0.178968	-0.795805	0.578502	-0.010714	0.589537	0.807670	-0.983797	0.138349	-0.114034
171	1094408908													-0.567256	-0.117988	0.169787	-0.179224	-0.795186	0.579274	-0.010264	0.590287	0.807128	-0.983755	0.138711	-0.113956
172	1094425575													-0.498496	-0.088446	0.138906	-0.179100	-0.794853	0.579769	-0.010078	0.590748	0.806793	-0.983779	0.138654	-0.113814
173	1094442242													-0.513696	-0.130041	0.142318	-0.178719	-0.794615	0.580212	-0.010141	0.591162	0.806489	-0.983848	0.138251	-0.113710
174	1094458909													-0.623270	-0.177712	0.183846	-0.178187	-0.794479	0.580562	-0.010382	0.591489	0.806246	-0.983942	0.137635	-0.113644
175	1094475576													-0.652991	-0.219535	0.217653	-0.177588	-0.794612	0.580564	-0.010826	0.591483	0.806245	-0.984045	0.136894	-0.113642
176	1094492243													-0.575850	-0.186185	0.334663	-0.176824	-0.794960	0.580321	-0.011317	0.591215	0.806435	-0.984177	0.136029	-0.113537
177	1094508910													-0.488887	-0.118424	0.332734	-0.175913	-0.795418	0.579970	-0.012006	0.590847	0.806694	-0.984332	0.134945	-0.113487
178	1094525577													-0.400722	-0.040902	0.169502	-0.174827	-0.795802	0.579772	-0.012870	0.590637	0.806835	-0.984515	0.133594	-0.113501
179	1094542244													-0.381378	0.036934	0.109097	-0.173552	-0.795963	0.579933	-0.013732	0.590767	0.806725	-0.984729	0.132045	-0.113459
180	1094558911													-0.509641	0.023019	0.229781	-0.172233	-0.795840	0.580495	-0.014473	0.591282	0.806335	-0.984950	0.130476	-0.113357
181	1094575578													-0.641853	-0.031970	0.172505	-0.170893	-0.795587	0.581237	-0.015137	0.591965	0.805822	-0.985173	0.128911	-0.113206
182	1094592245													-0.702177	-0.097899	0.077269	-0.169496	-0.795365	0.581950	-0.015771	0.592607	0.805337	-0.985405	0.127324	-0.112988
183	1094608912													-0.712943	-0.087983	0.125181	-0.168032	-0.795270	0.582504	-0.016335	0.593071	0.804984	-0.985646	0.125748	-0.112645
184	1094625579													-0.651239	-0.087209	0.324824	-0.166511	-0.795305	0.582892	-0.016737	0.593339	0.804778	-0.985898	0.124248	-0.112108
185	1094642246													-0.623279	-0.079412	0.404140	-0.164971	-0.795463	0.583114	-0.016809	0.593397	0.804735	-0.986155	0.122956	-0.111265
186	1094658913													-0.737061	-0.068479	0.149408	-0.163521	-0.795341	0.583690	-0.016403	0.593763	0.804472	-0.986403	0.121974	-0.110139
187	1094675580													-0.744990	-0.109293	0.025977	-0.162022	-0.795144	0.584376	-0.015953	0.594234	0.804134	-0.986658	0.120965	-0.108964
188	1094692247													-0.652832	-0.179280	0.126710	-0.160460	-0.794947	0.585074	-0.015435	0.594703	0.803797	-0.986922	0.119947	-0.107696
189	1094708914													-0.570785	-0.184291	0.222432	-0.158801	-0.794817	0.585703	-0.014935	0.595097	0.803515	-0.987198	0.118851	-0.106372
190	1094725581													-0.573503	-0.134962	0.190240	-0.157089	-0.794739	0.586271	-0.014489	0.595432	0.803275	-0.987478	0.117691	-0.105051
191	1094742248													-0.535380	-0.017743	0.129975	-0.155269	-0.794743	0.586749	-0.014177	0.595684	0.803094	-0.987770	0.116378	-0.103758
192	1094758915													-0.498836	-0.037792	0.119005	-0.153314	-0.794708	0.587311	-0.014033	0.596029	0.802840	-0.988078	0.114845	-0.102532
193	1094775582													-0.493220	-0.107817	0.207713	-0.151356	-0.794564	0.588013	-0.013929	0.596521	0.802476	-0.988381	0.113269	-0.101355
194	1094792249													-0.554984	-0.099240	0.248371	-0.149413	-0.794348	0.588801	-0.013729	0.597094	0.802053	-0.988680	0.111753	-0.100119
195	1094808916													-0.572088	-0.068446	0.119721	-0.147492	-0.794209	0.589473	-0.013693	0.597574	0.801697	-0.988968	0.110172	-0.099013
196	1094825583													-0.552953	-0.062107	0.135831	-0.145578	-0.794142	0.590038	-0.013778	0.597961	0.801407	-0.989251	0.108537	-0.097992
197	1094842250													-0.530186	-0.059558	0.159506	-0.143743	-0.794083	0.590567	-0.013906	0.598326	0.801132	-0.989517	0.106945	-0.097048
198	1094858917													-0.526560	0.026786	0.107628	-0.141983	-0.794060	0.591024	-0.014083	0.598633	0.800900	-0.989769	0.105391	-0.096179
199	1094875584													-0.516343	0.036457	0.081825	-0.140373	-0.794056	0.591415	-0.014291	0.598892	0.800703	-0.989996	0.103945	-0.095416
200	1094892251													-0.519464	0.038922	0.083523	-0.138853	-0.794080	0.591740	-0.014568	0.599102	0.800540	-0.990206	0.102537	-0.094755
201	1094908918													-0.484497	0.070474	0.071505	-0.137388	-0.794112	0.592040	-0.014893	0.599296	0.800389	-0.990405	0.101147	-0.094163
202	1094925585													-0.469255	0.086588	0.110965	-0.136019	-0.794094	0.592380	-0.015242	0.599544	0.800197	-0.990589	0.099812	-0.093653
203	1094942252													-0.475484	0.040015	0.113916	-0.134739	-0.793954	0.592859	-0.015531	0.599934	0.799899	-0.990759	0.098569	-0.093165
204	1094958919													-0.507919	0.003377	0.080482	-0.133624	-0.793660	0.593505	-0.015788	0.600504	0.799466	-0.990906	0.097458	-0.092772
205	1094975586													-0.536636	-0.001891	0.093032	-0.132606	-0.793334	0.594169	-0.016057	0.601104	0.799010	-0.991039	0.096413	-0.092449
206	1094992253													-0.544185	-0.003440	0.129929	-0.131618	-0.793050	0.594767	-0.016339	0.601641	0.798599	-0.991166	0.095392	-0.092145
207	1095008920													-0.563594	-0.013187	0.102543	-0.130634	-0.792806	0.595309	-0.016603	0.602120	0.798233	-0.991292	0.094393	-0.091820
208	1095025587													-0.584747	-0.009793	0.110525	-0.129608	-0.792693	0.595683	-0.016874	0.602427	0.797996	-0.991422	0.093375	-0.091456
209	1095042254													-0.568942	-0.004764	0.123197	-0.128561	-0.792626	0.596001	-0.017129	0.602673	0.797804	-0.991554	0.092358	-0.091057
210	1095058921													-0.557431	-0.049818	0.116059	-0.127514	-0.792619	0.596234	-0.017419	0.602838	0.797674	-0.991684	0.091329	-0.090677
211	1095075588													-0.534573	-0.062387	0.140061	-0.126423	-0.792684	0.596380	-0.017785	0.602919	0.797604	-0.991817	0.090229	-0.090321
212	1095092255													-0.494883	-0.060920	0.134024	-0.125310	-0.792741	0.596539	-0.018201	0.603015	0.797522	-0.991951	0.089080	-0.089992
213	1095108922													-0.507593	-0.068450	0.129137	-0.124206	-0.792743	0.596767	-0.018711	0.603189	0.797379	-0.992080	0.087873	-0.089753
214	1095125589													-0.506977	-0.060566	0.133576	-0.123119	-0.792721	0.597022	-0.019301	0.603398	0.797206	-0.992204	0.086628	-0.089591
215	1095142256													-0.511809	-0.048201	0.114214	-0.122018	-0.792746	0.597214	-0.019957	0.603548	0.797077	-0.992327	0.085339	-0.089465
216	1095158923													-0.504156	-0.027299	0.106580	-0.120933	-0.792797	0.597368	-0.020683	0.603666	0.796969	-0.992445	0.084024	-0.089400
217	1095175590													-0.507772	-0.031239	0.095605	-0.119909	-0.792804	0.597565	-0.021407	0.603833	0.796823	-0.992554	0.082754	-0.089377
218	1095192257													-0.515128	-0.049110	0.115510	-0.118956	-0.792745	0.597833	-0.022119	0.604074	0.796621	-0.992653	0.081539	-0.089394
219	1095208924													-0.512327	-0.042384	0.126603	-0.118147	-0.792628	0.598149	-0.022644	0.604362	0.796388	-0.992738	0.080546	-0.089351
220	1095225591													-0.519119	-0.021422	0.111617	-0.117395	-0.792510	0.598453	-0.023014	0.604629	0.796175	-0.992819	0.079694	-0.089219
221	1095242258													-0.566438	-0.023793	0.108727	-0.116671	-0.792439	0.598688	-0.023357	0.604828	0.796014	-0.992896	0.078888	-0.089075
222	1095258925													-0.540594	-0.084587	0.095912	-0.116032	-0.792305	0.598990	-0.023568	0.605090	0.795808	-0.992966	0.078222	-0.088882
223	1095275592													-0.585390	-0.039495	0.102584	-0.115359	-0.792174	0.599293	-0.023704	0.605344	0.795611	-0.993041	0.077575	-0.088610
224	1095292259													-0.560416	-0.093858	0.101842	-0.114615	-0.792066	0.599580	-0.023869	0.605578	0.795428	-0.993123	0.076856	-0.088314
225	1095308926													-0.577131	-0.106432	0.180081	-0.113939	-0.791798	0.600061	-0.023705	0.605989	0.795119	-0.993205	0.076370	-0.087815
226	1095325593													-0.557674	-0.075467	0.198907	-0.113201	-0.791643	0.600405	-0.023592	0.606261	0.794916	-0.993292	0.075821	-0.087306
227	1095342260													-0.563709	-0.017767	0.119429	-0.112368	-0.791505	0.600743	-0.023583	0.606526	0.794713	-0.993387	0.075133	-0.086820
228	1095358927													-0.551876	-0.010520	0.048740	-0.111407	-0.791397	0.601065	-0.023689	0.606773	0.794522	-0.993492	0.074277	-0.086346
229	1095375594													-0.561013	0.007690	0.056604	-0.110302	-0.791400	0.601265	-0.023782	0.606885	0.794434	-0.993614	0.073328	-0.085761
230	1095392261													-0.605655	-0.007072	0.046988	-0.109173	-0.791505	0.601333	-0.023926	0.606866	0.794444	-0.993735	0.072344	-0.085191
231	1095408928													-0.589828	-0.038195	0.057631	-0.108095	-0.791868	0.601049	-0.024196	0.606508	0.794709	-0.993846	0.071361	-0.084721
232	1095425595													-0.563743	-0.046635	0.108684	-0.107070	-0.792405	0.600525	-0.024471	0.605914	0.795153	-0.993950	0.070441	-0.084266
233	1095442262													-0.556767	-0.025092	0.102537	-0.106027	-0.793101	0.599790	-0.024814	0.605113	0.795753	-0.994054	0.069488	-0.083838
234	1095458929													-0.475583	0.001433	0.082515	-0.104986	-0.793842	0.598993	-0.025236	0.604254	0.796392	-0.994153	0.068494	-0.083471
235	1095475596													-0.390594	-0.007113	0.082900	-0.104009	-0.794415	0.598404	-0.025805	0.603620	0.796854	-0.994242	0.067438	-0.083282
236	1095492263													-0.385286	-0.007581	0.105363	-0.103079	-0.794792	0.598064	-0.026456	0.603245	0.797117	-0.994321	0.066343	-0.083209
237	1095508930													-0.354190	0.033582	0.102155	-0.102215	-0.794955	0.597995	-0.027148	0.603149	0.797166	-0.994392	0.065248	-0.083232
238	1095525597													-0.401408	0.050955	0.094715	-0.101424	-0.794874	0.598238	-0.027932	0.603377	0.796967	-0.994451	0.064122	-0.083400
239	1095542264													-0.490106	0.021514	0.043046	-0.100737	-0.794664	0.598632	-0.028787	0.603769	0.796639	-0.994497	0.063018	-0.083698
240	1095558931													-0.525344	0.003744	0.081968	-0.100097	-0.794466	0.599003	-0.029676	0.604143	0.796323	-0.994535	0.061933	-0.084049
241	1095575598													-0.533342	-0.024634	0.111220	-0.099471	-0.794344	0.599269	-0.030523	0.604408	0.796090	-0.994572	0.060896	-0.084367
242	1095592265													-0.553016	-0.049714	0.101052	-0.098986	-0.794179	0.599568	-0.031266	0.604712	0.795831	-0.994597	0.060030	-0.084689
243	1095608932													-0.579371	-0.039337	0.052809	-0.098561	-0.794097	0.599746	-0.031946	0.604895	0.795664	-0.994618	0.059262	-0.084987
244	1095625599													-0.568371	-0.005177	0.074913	-0.098157	-0.794080	0.599835	-0.032481	0.604981	0.795577	-0.994641	0.058608	-0.085175
245	1095642266													-0.533760	0.008415	0.094024	-0.097759	-0.794170	0.599781	-0.032960	0.604921	0.795603	-0.994664	0.058009	-0.085312
246	1095658933													-0.506645	0.019629	0.085801	-0.097431	-0.794228	0.599757	-0.033362	0.604892	0.795608	-0.994683	0.057507	-0.085432
247	1095675600													-0.511545	-0.019740	0.104478	-0.097134	-0.794204	0.599838	-0.033633	0.604963	0.795543	-0.994703	0.057100	-0.085474
248	1095692267													-0.527203	-0.013897	0.142326	-0.096928	-0.794135	0.599962	-0.033724	0.605075	0.795454	-0.994720	0.056869	-0.085430
249	1095708934													-0.526424	-0.053796	0.127047	-0.096731	-0.794072	0.600077	-0.033662	0.605170	0.795385	-0.994741	0.056738	-0.085269
250	1095725601													-0.537242	-0.049163	0.082151	-0.096584	-0.793931	0.600287	-0.033454	0.605356	0.795252	-0.994762	0.056726	-0.085028
251	1095742268													-0.564387	-0.016767	0.087232	-0.096463	-0.793784	0.600501	-0.033136	0.605541	0.795124	-0.994785	0.056802	-0.084715
252	1095758935													-0.578366	-0.044416	0.105501	-0.096359	-0.793694	0.600637	-0.032782	0.605648	0.795057	-0.994807	0.056921	-0.084378
253	1095775602													-0.546517	-0.071534	0.137513	-0.096241	-0.793742	0.600592	-0.032351	0.605568	0.795135	-0.994832	0.057095	-0.083959
254	1095792269													-0.555645	-0.012964	0.106681	-0.096140	-0.793891	0.600412	-0.031776	0.605347	0.795327	-0.994861	0.057384	-0.083424
255	1095808936													-0.553744	-0.014767	0.078623	-0.096082	-0.794103	0.600141	-0.031152	0.605034	0.795590	-0.994886	0.057747	-0.082871
256	1095825603													-0.534093	0.012103	0.065422	-0.095974	-0.794365	0.599812	-0.030547	0.604660	0.795898	-0.994915	0.058063	-0.082298
257	1095842270													-0.473944	-0.013650	0.080143	-0.095916	-0.794457	0.599699	-0.029967	0.604508	0.796035	-0.994938	0.058381	-0.081789
258	1095858937													-0.463668	-0.036141	0.088970	-0.095871	-0.794475	0.599682	-0.029501	0.604461	0.796089	-0.994956	0.058631	-0.081388
259	1095875604													-0.439962	-0.026479	0.052397	-0.095813	-0.794470	0.599698	-0.029019	0.604443	0.796119	-0.994976	0.058876	-0.080968
260	1095892271													-0.447226	-0.056540	0.103717	-0.095758	-0.794462	0.599718	-0.028560	0.604431	0.796145	-0.994995	0.059109	-0.080569
261	1095908938													-0.441909	-0.066401	0.129844	-0.095759	-0.794418	0.599775	-0.028241	0.604469	0.796128	-0.995004	0.059298	-0.080319
262	1095925605													-0.467434	-0.051403	0.104694	-0.095890	-0.794324	0.599879	-0.028012	0.604571	0.796059	-0.994998	0.059530	-0.080223
263	1095942272													-0.496117	-0.031686	0.109145	-0.096123	-0.794289	0.599888	-0.027894	0.604591	0.796047	-0.994979	0.059785	-0.080271
264	1095958939													-0.492487	0.005207	0.080609	-0.096382	-0.794376	0.599732	-0.027858	0.604454	0.796153	-0.994954	0.060027	-0.080388
265	1095975606													-0.504155	0.014004	0.022107	-0.096649	-0.794491	0.599536	-0.027885	0.604281	0.796283	-0.994928	0.060242	-0.080558
266	1095992273													-0.506064	0.017954	0.026583	-0.096915	-0.794627	0.599313	-0.027930	0.604082	0.796433	-0.994901	0.060448	-0.080739
267	1096008940													-0.473081	0.015620	-0.022011	-0.097160	-0.794772	0.599080	-0.028087	0.603878	0.796582	-0.994872	0.060569	-0.080996
268	1096025607													-0.446746	0.008112	0.046549	-0.097454	-0.794913	0.598845	-0.028339	0.603682	0.796722	-0.994837	0.060673	-0.081358
269	1096042274													-0.436085	-0.044393	0.171585	-0.097793	-0.795002	0.598672	-0.028566	0.603550	0.796814	-0.994797	0.060821	-0.081733
270	1096058941													-0.491438	-0.040727	0.134530	-0.098247	-0.795086	0.598486	-0.028845	0.603418	0.796903	-0.994744	0.061030	-0.082218
271	1096075608													-0.511241	-0.053433	0.085124	-0.098744	-0.795197	0.598257	-0.029245	0.603254	0.797012	-0.994683	0.061204	-0.082823
272	1096092275													-0.492677	-0.045901	0.042956	-0.099210	-0.795342	0.597987	-0.029713	0.603052	0.797149	-0.994623	0.061317	-0.083460
273	1096108942													-0.468954	-0.058748	0.115603	-0.099633	-0.795401	0.597838	-0.030109	0.602962	0.797201	-0.994569	0.061427	-0.084024
274	1096125609													-0.474649	-0.052297	0.146450	-0.100022	-0.795330	0.597868	-0.030393	0.603043	0.797129	-0.994521	0.061559	-0.084490
275	1096142276													-0.563382	-0.042582	0.124679	-0.100410	-0.795224	0.597943	-0.030606	0.603165	0.797029	-0.994475	0.061730	-0.084902
276	1096158943													-0.569413	-0.035389	0.062556	-0.100706	-0.795230	0.597886	-0.030902	0.603151	0.797028	-0.994436	0.061790	-0.085316
277	1096175610													-0.533013	-0.028165	0.053512	-0.100893	-0.795367	0.597672	-0.031226	0.602973	0.797150	-0.994407	0.061764	-0.085672
278	1096192277													-0.499396	-0.041334	0.085629	-0.100946	-0.795585	0.597372	-0.031561	0.602698	0.797345	-0.994391	0.061635	-0.085950
279	1096208944													-0.448942	-0.047904	0.141804	-0.100899	-0.795852	0.597025	-0.031930	0.602369	0.797579	-0.994384	0.061412	-0.086190
280	1096225611													-0.462374	-0.025868	0.097466	-0.100874	-0.796111	0.596684	-0.032366	0.602052	0.797801	-0.994373	0.061165	-0.086498
281	1096242278													-0.465792	-0.010921	0.088814	-0.100888	-0.796312	0.596413	-0.032813	0.601809	0.797966	-0.994357	0.060935	-0.086844
282	1096258945													-0.456016	-0.022456	0.121881	-0.100905	-0.796472	0.596196	-0.033211	0.601617	0.798094	-0.994342	0.060732	-0.087158
283	1096275612													-0.435863	-0.051199	0.126431	-0.101009	-0.796537	0.596092	-0.033608	0.601547	0.798130	-0.994318	0.060585	-0.087532
284	1096292279													-0.442963	-0.032922	0.150353	-0.101176	-0.796500	0.596113	-0.033974	0.601604	0.798071	-0.994288	0.060493	-0.087928
285	1096308946													-0.462218	-0.029154	0.141806	-0.101349	-0.796429	0.596179	-0.034355	0.601709	0.797976	-0.994258	0.060392	-0.088344
286	1096325613													-0.492781	-0.050430	0.110250	-0.101478	-0.796311	0.596315	-0.034727	0.601879	0.797832	-0.994231	0.060255	-0.088731
287	1096342280													-0.514891	-0.062856	0.098610	-0.101511	-0.796200	0.596458	-0.035092	0.602047	0.797689	-0.994215	0.060043	-0.089055
288	1096358947													-0.554405	-0.090675	0.122967	-0.101446	-0.796097	0.596606	-0.035437	0.602211	0.797550	-0.994210	0.059767	-0.089303
289	1096375614													-0.565196	-0.086718	0.100053	-0.101294	-0.796080	0.596654	-0.035783	0.602266	0.797493	-0.994213	0.059431	-0.089492
290	1096392281													-0.544699	-0.085688	0.137734	-0.101014	-0.796205	0.596535	-0.036151	0.602143	0.797569	-0.994228	0.059001	-0.089609
291	1096408948													-0.491292	-0.074636	0.116492	-0.100672	-0.796367	0.596377	-0.036489	0.601974	0.797681	-0.994250	0.058543	-0.089661
292	1096425615													-0.481420	-0.054347	0.078530	-0.100292	-0.796466	0.596308	-0.036859	0.601893	0.797726	-0.994275	0.058027	-0.089722
293	1096442282													-0.484228	-0.069802	0.087545	-0.099899	-0.796502	0.596327	-0.037210	0.601896	0.797707	-0.994302	0.057501	-0.089766
294	1096458949													-0.475304	-0.053669	0.111667	-0.099531	-0.796516	0.596369	-0.037550	0.601925	0.797669	-0.994326	0.056999	-0.089819
295	1096475616													-0.482266	-0.020150	0.083781	-0.099236	-0.796558	0.596362	-0.037911	0.601912	0.797662	-0.994342	0.056548	-0.089930
296	1096492283													-0.475939	-0.027017	0.097198	-0.098984	-0.796606	0.596340	-0.038274	0.601887	0.797664	-0.994353	0.056132	-0.090066
297	1096508950													-0.463817	0.000321	0.131492	-0.098732	-0.796674	0.596291	-0.038579	0.601832	0.797690	-0.994366	0.055753	-0.090155
298	1096525617													-0.490220	0.007443	0.061960	-0.098537	-0.796679	0.596317	-0.038826	0.601855	0.797661	-0.994376	0.055447	-0.090236
299	1096542284													-0.513570	-0.011375	0.058036	-0.098383	-0.796643	0.596389	-0.038972	0.601921	0.797604	-0.994385	0.055228	-0.090265
300	1096558951													-0.522764	-0.006130	0.035358	-0.098238	-0.796668	0.596380	-0.039007	0.601901	0.797618	-0.994398	0.055093	-0.090205
301	1096575618													-0.517658	-0.007472	0.074825	-0.098192	-0.796851	0.596143	-0.038985	0.601658	0.797802	-0.994404	0.055097	-0.090144
302	1096592285													-0.435647	0.053597	0.085418	-0.098238	-0.797151	0.595734	-0.038907	0.601249	0.798114	-0.994402	0.055227	-0.090080
303	1096608952													-0.418002	0.090197	0.055867	-0.098489	-0.797455	0.595286	-0.038838	0.600818	0.798442	-0.994380	0.055518	-0.090146
304	1096625619													-0.390476	0.067264	0.045612	-0.098972	-0.797629	0.594972	-0.038689	0.600540	0.798658	-0.994338	0.056026	-0.090296
305	1096642286													-0.408117	0.053441	0.049362	-0.099663	-0.797721	0.594733	-0.038476	0.600352	0.798810	-0.994277	0.056729	-0.090526
306	1096658953													-0.433785	0.006302	0.025893	-0.100523	-0.797719	0.594592	-0.038253	0.600276	0.798877	-0.994199	0.057560	-0.090857
307	1096675620													-0.440022	-0.037578	0.049923	-0.101442	-0.797674	0.594497	-0.038106	0.600256	0.798899	-0.994111	0.058388	-0.091288
308	1096692287													-0.400971	-0.019528	0.082981	-0.102385	-0.797625	0.594400	-0.038055	0.600244	0.798911	-0.994017	0.059177	-0.091810
309	1096708954													-0.397353	-0.027845	0.126840	-0.103284	-0.797546	0.594351	-0.038147	0.600284	0.798877	-0.993920	0.059838	-0.092423
310	1096725621													-0.402966	-0.053266	0.122458	-0.104150	-0.797328	0.594492	-0.038288	0.600514	0.798697	-0.993824	0.060422	-0.093072
311	1096742288													-0.475943	-0.135629	0.200602	-0.104904	-0.797050	0.594733	-0.038406	0.600833	0.798451	-0.993740	0.060919	-0.093641
312	1096758955													-0.539569	-0.167874	0.169603	-0.105557	-0.796811	0.594937	-0.038564	0.601110	0.798236	-0.993665	0.061316	-0.094180
313	1096775622													-0.587369	-0.179702	0.122205	-0.105990	-0.796788	0.594891	-0.038779	0.601118	0.798219	-0.993611	0.061534	-0.094612
314	1096792289													-0.561357	-0.124020	0.130290	-0.106295	-0.796944	0.594628	-0.038957	0.600894	0.798379	-0.993571	0.061698	-0.094919
315	1096808956													-0.567041	-0.026360	0.078165	-0.106516	-0.797233	0.594200	-0.039096	0.600496	0.798671	-0.993542	0.061840	-0.095131
316	1096825623													-0.542803	0.013763	0.020427	-0.106611	-0.797590	0.593704	-0.039181	0.600014	0.799030	-0.993529	0.061924	-0.095218
317	1096842290													-0.494926	-0.026296	0.113909	-0.106640	-0.797882	0.593306	-0.039118	0.599613	0.799333	-0.993528	0.062032	-0.095155
318	1096858957													-0.436783	-0.066790	0.209743	-0.106605	-0.798056	0.593078	-0.038966	0.599372	0.799522	-0.993538	0.062123	-0.094993
319	1096875624													-0.453721	-0.095615	0.116944	-0.106546	-0.798094	0.593038	-0.038876	0.599321	0.799564	-0.993547	0.062135	-0.094882
320	1096892291													-0.474947	-0.069714	0.061422	-0.106466	-0.798083	0.593067	-0.038824	0.599339	0.799553	-0.993558	0.062100	-0.094794
321	1096908958													-0.475889	-0.089033	0.131577	-0.106228	-0.798030	0.593181	-0.038771	0.599427	0.799490	-0.993586	0.061930	-0.094616
322	1096925625													-0.455862	-0.106178	0.144853	-0.105923	-0.798003	0.593272	-0.038690	0.599484	0.799451	-0.993621	0.061727	-0.094374
323	1096942292													-0.447387	-0.100941	0.194343	-0.105580	-0.797978	0.593366	-0.038609	0.599541	0.799412	-0.993661	0.061493	-0.094108
324	1096958959													-0.453726	-0.053700	0.145012	-0.105264	-0.797928	0.593490	-0.038520	0.599629	0.799350	-0.993698	0.061282	-0.093855
325	1096975626													-0.449298	0.002194	0.095368	-0.104935	-0.797860	0.593640	-0.038399	0.599741	0.799272	-0.993738	0.061076	-0.093571
326	1096992293													-0.456884	0.008851	0.103409	-0.104619	-0.797782	0.593801	-0.038237	0.599862	0.799189	-0.993777	0.060905	-0.093262
327	1097008960													-0.425235	0.032338	-0.004087	-0.104347	-0.797662	0.594009	-0.038112	0.600038	0.799063	-0.993810	0.060741	-0.093013
328	1097025627													-0.420403	0.065925	0.006664	-0.104103	-0.797512	0.594253	-0.038033	0.600255	0.798904	-0.993839	0.060568	-0.092820
329	1097042294													-0.386255	0.030492	0.049267	-0.103868	-0.797376	0.594477	-0.037930	0.600451	0.798762	-0.993868	0.060417	-0.092612
330	1097058961													-0.378424	0.025287	0.088006	-0.103699	-0.797208	0.594732	-0.037895	0.600688	0.798585	-0.993887	0.060275	-0.092501
331	1097075628													-0.424918	-0.042510	0.088110	-0.103720	-0.797010	0.594994	-0.037917	0.600954	0.798384	-0.993884	0.060248	-0.092551
332	1097092295													-0.427202	-0.020603	0.105201	-0.103832	-0.796893	0.595130	-0.038030	0.601108	0.798263	-0.993868	0.060253	-0.092720
333	1097108962													-0.428868	-0.016398	0.086525	-0.104035	-0.796885	0.595106	-0.038200	0.601113	0.798251	-0.993840	0.060313	-0.092978
334	1097125629													-0.403978	-0.001435	0.093666	-0.104297	-0.796921	0.595012	-0.038426	0.601057	0.798282	-0.993804	0.060395	-0.093311
335	1097142296													-0.409647	0.011404	0.087083	-0.104660	-0.796960	0.594895	-0.038693	0.600991	0.798319	-0.993755	0.060534	-0.093737
336	1097158963													-0.402527	0.007529	0.100804	-0.105151	-0.797012	0.594739	-0.038988	0.600899	0.798373	-0.993692	0.060762	-0.094259
337	1097175630													-0.430975	-0.002555	0.064007	-0.105721	-0.797077	0.594551	-0.039325	0.600786	0.798442	-0.993618	0.061031	-0.094860
338	1097192297													-0.453161	-0.012201	0.083443	-0.106393	-0.797141	0.594345	-0.039664	0.600664	0.798517	-0.993533	0.061383	-0.095524
339	1097208964													-0.440998	-0.004906	0.084832	-0.107111	-0.797253	0.594067	-0.040047	0.600479	0.798637	-0.993440	0.061752	-0.096245
340	1097225631													-0.412881	-0.008944	0.088406	-0.107903	-0.797376	0.593758	-0.040421	0.600270	0.798776	-0.993339	0.062190	-0.097002
341	1097242298													-0.422934	0.001882	0.120709	-0.108807	-0.797415	0.593540	-0.040730	0.600160	0.798842	-0.993228	0.062745	-0.097780
342	1097258965													-0.456746	-0.018502	0.123945	-0.109781	-0.797403	0.593378	-0.040962	0.600109	0.798869	-0.993111	0.063394	-0.098544
343	1097275632													-0.477947	-0.013789	0.135506	-0.110785	-0.797358	0.593251	-0.041045	0.600087	0.798881	-0.992996	0.064154	-0.099208
344	1097292299													-0.489442	-0.014025	0.107453	-0.111827	-0.797382	0.593024	-0.040995	0.599961	0.798978	-0.992882	0.065036	-0.099781
345	1097308966													-0.518305	0.007435	0.048738	-0.112841	-0.797443	0.592749	-0.040803	0.599775	0.799127	-0.992775	0.065989	-0.100218
346	1097325633													-0.488103	0.043798	0.049566	-0.113858	-0.797541	0.592422	-0.040526	0.599532	0.799324	-0.992670	0.067001	-0.100583
347	1097342300													-0.444687	0.016549	0.049592	-0.114871	-0.797626	0.592112	-0.040126	0.599297	0.799520	-0.992570	0.068082	-0.100847
348	1097358967													-0.429509	0.013707	0.086774	-0.115975	-0.797664	0.591846	-0.039639	0.599109	0.799686	-0.992461	0.069283	-0.101100
349	1097375634													-0.416207	0.001889	0.142081	-0.117170	-0.797714	0.591544	-0.039133	0.598893	0.799872	-0.992341	0.070572	-0.101389
350	1097392301													-0.386346	-0.011407	0.160090	-0.118446	-0.797757	0.591231	-0.038595	0.598671	0.800064	-0.992210	0.071946	-0.101700
351	1097408968													-0.422130	-0.036781	0.137584	-0.119789	-0.797741	0.590982	-0.038007	0.598517	0.800208	-0.992072	0.073395	-0.102016
352	1097425635													-0.436039	-0.020956	0.101539	-0.121202	-0.797724	0.590717	-0.037480	0.598358	0.800352	-0.991920	0.074864	-0.102421
353	1097442302													-0.440685	-0.040840	0.083874	-0.122591	-0.797717	0.590440	-0.036965	0.598185	0.800505	-0.991769	0.076309	-0.102819
354	1097458969													-0.421000	-0.058069	0.107722	-0.123932	-0.797712	0.590167	-0.036485	0.598013	0.800655	-0.991620	0.077694	-0.103218
355	1097475636													-0.418854	-0.068976	0.128996	-0.125169	-0.797664	0.589970	-0.036022	0.597909	0.800754	-0.991481	0.078978	-0.103573
356	1097492303													-0.433657	-0.119054	0.163931	-0.126249	-0.797598	0.589830	-0.035611	0.597848	0.800818	-0.991359	0.080098	-0.103881
357	1097508970													-0.437033	-0.184859	0.215771	-0.127134	-0.797488	0.589787	-0.035241	0.597869	0.800819	-0.991259	0.081027	-0.104113
358	1097525637													-0.445543	-0.207688	0.216921	-0.127777	-0.797317	0.589880	-0.034881	0.598000	0.800737	-0.991189	0.081740	-0.104222
359	1097542304													-0.474624	-0.209704	0.207736	-0.128158	-0.797210	0.589942	-0.034688	0.598086	0.800681	-0.991147	0.082150	-0.104303
360	1097558971													-0.492755	-0.143571	0.137087	-0.128350	-0.797359	0.589699	-0.034767	0.597870	0.800839	-0.991119	0.082286	-0.104459
361	1097575638													-0.426038	-0.061312	0.071660	-0.128410	-0.797734	0.589178	-0.035000	0.597372	0.801200	-0.991103	0.082261	-0.104629
362	1097592305													-0.397951	0.008067	0.127463	-0.128350	-0.798161	0.588613	-0.035250	0.596818	0.801602	-0.991102	0.082137	-0.104737
363	1097608972													-0.340969	0.025852	0.121099	-0.128283	-0.798465	0.588215	-0.035553	0.596436	0.801873	-0.991100	0.081954	-0.104900
364	1097625639													-0.340845	-0.003261	0.132038	-0.128259	-0.798612	0.588021	-0.035859	0.596265	0.801987	-0.991092	0.081776	-0.105114
365	1097642306													-0.382513	-0.039659	0.141877	-0.128310	-0.798608	0.588015	-0.036124	0.596286	0.801959	-0.991076	0.081658	-0.105358
366	1097658973													-0.428504	-0.007582	0.088058	-0.128483	-0.798551	0.588055	-0.036377	0.596366	0.801888	-0.991044	0.081637	-0.105672
367	1097675640													-0.455919	0.032894	0.079095	-0.128770	-0.798531	0.588019	-0.036571	0.596377	0.801871	-0.991000	0.081752	-0.105998
368	1097692307													-0.466125	0.070743	0.085087	-0.129120	-0.798594	0.587857	-0.036693	0.596261	0.801951	-0.990950	0.081978	-0.106292
369	1097708974													-0.404282	0.058671	0.103248	-0.129556	-0.798625	0.587719	-0.036693	0.596170	0.802019	-0.990893	0.082341	-0.106542
370	1097725641													-0.383731	0.058443	0.096164	-0.130068	-0.798512	0.587759	-0.036531	0.596252	0.801966	-0.990832	0.082839	-0.106724
371	1097742308													-0.404544	0.025083	0.090516	-0.130646	-0.798284	0.587941	-0.036300	0.596477	0.801809	-0.990764	0.083411	-0.106905
372	1097758975													-0.429826	-0.018428	0.122428	-0.131262	-0.798044	0.588130	-0.036017	0.596710	0.801648	-0.990693	0.084043	-0.107068
373	1097775642													-0.431484	-0.033466	0.096498	-0.131896	-0.797838	0.588266	-0.035707	0.596890	0.801528	-0.990620	0.084713	-0.107216
374	1097792309													-0.442980	-0.050873	0.140025	-0.132552	-0.797689	0.588322	-0.035374	0.596988	0.801470	-0.990545	0.085425	-0.107350
375	1097808976													-0.430391	-0.053877	0.107339	-0.133198	-0.797653	0.588225	-0.035132	0.596940	0.801516	-0.990467	0.086095	-0.107534
376	1097825643													-0.396248	-0.033325	0.111823	-0.133824	-0.797642	0.588097	-0.034901	0.596860	0.801586	-0.990390	0.086746	-0.107712
377	1097842310													-0.399988	-0.025703	0.134315	-0.134443	-0.797630	0.587972	-0.034715	0.596786	0.801649	-0.990313	0.087365	-0.107924
378	1097858977													-0.386710	-0.036308	0.119054	-0.135037	-0.797605	0.587870	-0.034583	0.596736	0.801692	-0.990237	0.087928	-0.108165
379	1097875644													-0.395233	-0.045462	0.128574	-0.135626	-0.797611	0.587726	-0.034521	0.596651	0.801758	-0.990158	0.088451	-0.108456
380	1097892311													-0.400728	-0.051278	0.131618	-0.136192	-0.797637	0.587560	-0.034475	0.596543	0.801840	-0.990082	0.088948	-0.108743
381	1097908978													-0.402848	-0.036993	0.143083	-0.136764	-0.797634	0.587432	-0.034435	0.596474	0.801894	-0.990005	0.089442	-0.109043
382	1097925645													-0.414870	-0.048856	0.141039	-0.137304	-0.797634	0.587306	-0.034458	0.596409	0.801941	-0.989929	0.089872	-0.109374
383	1097942312													-0.407603	-0.044999	0.142694	-0.137862	-0.797621	0.587192	-0.034465	0.596357	0.801979	-0.989852	0.090324	-0.109705
384	1097958979													-0.415580	-0.026735	0.130662	-0.138426	-0.797605	0.587082	-0.034496	0.596312	0.802011	-0.989772	0.090767	-0.110059
385	1097975646													-0.404632	-0.014970	0.113451	-0.138968	-0.797574	0.586996	-0.034519	0.596288	0.802028	-0.989695	0.091193	-0.110396
386	1097992313													-0.395120	-0.012952	0.122227	-0.139465	-0.797529	0.586939	-0.034528	0.596288	0.802028	-0.989625	0.091589	-0.110699
387	1098008980													-0.413295	-0.027936	0.122927	-0.139916	-0.797477	0.586902	-0.034493	0.596298	0.802022	-0.989562	0.091972	-0.110939
388	1098025647													-0.428217	-0.046113	0.123526	-0.140334	-0.797391	0.586919	-0.034424	0.596356	0.801982	-0.989506	0.092341	-0.111138
