// Start Time: Unknown
// Update Rate: 100.0Hz
//Filter Profile: human (46.1)
// Option Flags: AHS Disabled ICC Disabled
// Firmware Version: 4.0.2
PacketCounter	SampleTimeFine	Year	Month	Day	Second	UTC_Nano	UTC_Year	UTC_Month	UTC_Day	UTC_Hour	UTC_Minute	UTC_Second	UTC_Valid	Acc_X	Acc_Y	Acc_Z	Mat[1][1]	Mat[1][2]	Mat[1][3]	Mat[2][1]	Mat[2][2]	Mat[2][3]	Mat[3][1]	Mat[3][2]	Mat[3][3]
1	1040424495													0.263533	2.191094	0.794200	-0.436386	-0.899645	-0.014364	0.163523	-0.094997	0.981955	-0.884776	0.426162	0.188568
2	1040441162													0.219733	2.801390	0.622374	-0.443276	-0.895952	-0.027876	0.159907	-0.109638	0.981025	-0.882007	0.430407	0.191869
3	1040457829													0.024151	3.394498	1.008743	-0.448417	-0.892874	-0.041210	0.154150	-0.122667	0.980403	-0.880432	0.433277	0.192642
4	1040474496													-0.801681	3.929285	0.865652	-0.451145	-0.890924	-0.052182	0.148455	-0.132573	0.979993	-0.880017	0.434372	0.192072
5	1040491163													-1.789382	4.344276	0.743279	-0.452323	-0.889730	-0.061515	0.143534	-0.140698	0.979593	-0.880228	0.434263	0.191347
6	1040507830													-2.149605	5.161465	0.808314	-0.452761	-0.889107	-0.067060	0.139545	-0.144943	0.979550	-0.880645	0.434144	0.189695
7	1040524497													-2.606516	5.961730	2.517148	-0.453066	-0.888881	-0.067986	0.135291	-0.143936	0.980295	-0.881152	0.434940	0.185470
8	1040541164													-2.449591	4.705170	2.720948	-0.445731	-0.892853	-0.064322	0.134532	-0.137853	0.981274	-0.885000	0.428731	0.181563
9	1040557831													-1.600303	4.277039	1.315469	-0.427799	-0.901970	-0.058639	0.137605	-0.129109	0.982036	-0.893338	0.412045	0.179348
10	1040574498													-0.936724	4.524514	0.862267	-0.403799	-0.913672	-0.046363	0.140704	-0.112101	0.983685	-0.903963	0.390688	0.173823
11	1040591165													-0.674920	4.416819	0.889432	-0.375143	-0.926535	-0.028290	0.140463	-0.086985	0.986257	-0.916263	0.366014	0.162776
12	1040607832													-0.995786	2.905406	-0.494518	-0.334486	-0.942393	-0.003826	0.138985	-0.053345	0.988857	-0.932096	0.330227	0.148822
13	1040624499													-0.638477	0.033289	-0.627459	-0.289976	-0.956747	0.023456	0.133729	-0.016239	0.990885	-0.947645	0.290469	0.132654
14	1040641166													0.953656	-0.253320	1.539831	-0.244597	-0.968577	0.045071	0.118141	0.016367	0.992862	-0.962401	0.248176	0.110425
15	1040657833													1.173988	-0.594014	4.178802	-0.197911	-0.978660	0.055277	0.087316	0.038567	0.995434	-0.976323	0.201834	0.077820
16	1040674500													0.701791	-1.327365	5.651341	-0.142855	-0.988201	0.055233	0.050410	0.048469	0.997552	-0.988459	0.145290	0.042891
17	1040691167													2.604261	-2.151914	5.924737	-0.080322	-0.994701	0.064166	0.022244	0.062569	0.997793	-0.996521	0.081572	0.017101
18	1040707834													4.007444	-3.642533	3.625730	-0.021066	-0.994389	0.103667	0.002853	0.103630	0.994612	-0.999774	0.021248	0.000654
19	1040724501													4.289130	-4.418320	1.245456	0.027027	-0.987639	0.154396	-0.015879	0.154009	0.987942	-0.999509	-0.029152	-0.011521
20	1040741168													3.629105	-4.107002	-1.602188	0.064014	-0.975757	0.209286	-0.036363	0.207297	0.977602	-0.997286	-0.070191	-0.022211
21	1040757835													1.506816	-3.425652	-1.505813	0.082574	-0.961685	0.261425	-0.056945	0.257340	0.964642	-0.994957	-0.094541	-0.033513
22	1040774502													-0.525762	-3.565489	0.275144	0.099724	-0.945988	0.308483	-0.078662	0.301563	0.950196	-0.991901	-0.119023	-0.044340
23	1040791169													-0.813151	-2.925849	0.182522	0.119051	-0.930075	0.347544	-0.103897	0.336442	0.935955	-0.987437	-0.147535	-0.056578
24	1040807836													-1.325745	-2.055838	0.211762	0.142453	-0.913556	0.380949	-0.132180	0.363869	0.922024	-0.980936	-0.181699	-0.068919
25	1040824503													-1.991505	-1.447484	-1.884786	0.172288	-0.896687	0.407760	-0.161181	0.382708	0.909700	-0.971770	-0.222454	-0.078593
26	1040841170													-2.127408	-0.337854	-3.094541	0.197134	-0.882761	0.426464	-0.187982	0.392893	0.900165	-0.962185	-0.257621	-0.088490
27	1040857837													-2.193000	-0.280938	-3.580902	0.218042	-0.870710	0.440820	-0.210873	0.398985	0.892381	-0.952885	-0.287533	-0.096613
28	1040874504													-1.804785	-0.728895	-3.725416	0.235934	-0.860281	0.451943	-0.229250	0.402672	0.886171	-0.944341	-0.312685	-0.102215
29	1040891171													-1.529663	-0.162637	-3.726648	0.253374	-0.852088	0.457982	-0.242726	0.402287	0.882751	-0.936422	-0.334831	-0.104894
30	1040907838													-0.825294	-0.447130	-3.288205	0.268648	-0.845210	0.462005	-0.251259	0.401542	0.880700	-0.929891	-0.352682	-0.104493
31	1040924505													0.402787	-1.181908	-3.217557	0.280744	-0.840676	0.463083	-0.254591	0.399975	0.880456	-0.925401	-0.365080	-0.101738
32	1040941172													1.363649	-1.753208	-3.459838	0.294852	-0.834889	0.464781	-0.252953	0.400855	0.880528	-0.921454	-0.377193	-0.092995
33	1040957839													1.257618	-1.290991	-3.423083	0.307657	-0.831492	0.462566	-0.247475	0.399488	0.882703	-0.918751	-0.386044	-0.082868
34	1040974506													2.038648	-1.533324	-3.491608	0.318024	-0.830210	0.457833	-0.241034	0.396238	0.885945	-0.916932	-0.392105	-0.074095
35	1040991173													1.291861	-1.184254	-3.295443	0.324490	-0.830537	0.452674	-0.233506	0.393422	0.889210	-0.916614	-0.394242	-0.066274
36	1041007840													1.094254	-0.555608	-3.107855	0.323576	-0.835248	0.444589	-0.223683	0.389025	0.893658	-0.919383	-0.388614	-0.060951
37	1041024507													1.186988	-0.300141	-2.309275	0.315083	-0.843243	0.435505	-0.212248	0.384648	0.898330	-0.925026	-0.375483	-0.057780
38	1041041174													1.016717	-0.028460	-1.244824	0.300459	-0.852214	0.428316	-0.199581	0.382949	0.901952	-0.932680	-0.356484	-0.055026
39	1041057841													0.190626	0.289103	0.232282	0.281937	-0.860460	0.424406	-0.185810	0.385007	0.904016	-0.941268	-0.333734	-0.051335
40	1041074508													-1.486424	0.935507	2.193359	0.264441	-0.866729	0.422910	-0.171541	0.389254	0.905016	-0.949023	-0.311870	-0.045745
41	1041091175													-3.170528	1.320391	3.398643	0.250872	-0.869701	0.425069	-0.159468	0.395982	0.904305	-0.954795	-0.294650	-0.039349
42	1041107842													-3.314848	1.675545	4.307654	0.240881	-0.866788	0.436641	-0.155331	0.409660	0.898917	-0.958044	-0.284356	-0.035960
43	1041124509													-2.673568	2.335377	4.411587	0.235238	-0.854823	0.462538	-0.161442	0.434916	0.885881	-0.958436	-0.283066	-0.035695
44	1041141176													-2.872117	2.847364	3.502988	0.238579	-0.834320	0.496980	-0.173475	0.466913	0.867121	-0.955503	-0.293091	-0.033338
45	1041157843													-3.072734	3.679572	1.441141	0.251695	-0.810253	0.529281	-0.189046	0.495192	0.847966	-0.949163	-0.313488	-0.028538
46	1041174510													-3.071670	3.983617	0.141325	0.267801	-0.789735	0.551906	-0.205664	0.512770	0.833528	-0.941268	-0.336727	-0.025099
47	1041191177													-4.310152	2.833730	0.918914	0.287422	-0.773686	0.564622	-0.222330	0.519503	0.825037	-0.931642	-0.362667	-0.022697
48	1041207844													-2.918359	-1.275167	5.084841	0.309448	-0.767210	0.561811	-0.239167	0.509024	0.826858	-0.920348	-0.390236	-0.025975
49	1041224511													-5.250539	-3.561262	4.868533	0.317868	-0.767419	0.556802	-0.256258	0.495867	0.829728	-0.912848	-0.406429	-0.039037
50	1041241178													-6.568910	-1.847810	-0.388142	0.316365	-0.777130	0.544042	-0.266243	0.477710	0.837202	-0.910510	-0.409709	-0.055774
51	1041257845													-0.810315	2.992458	-1.329731	0.300583	-0.785796	0.540531	-0.272306	0.472443	0.838240	-0.914056	-0.399151	-0.071969
52	1041274512													1.713805	1.218840	1.733121	0.291279	-0.793056	0.534994	-0.273277	0.466960	0.840992	-0.916775	-0.391165	-0.080708
53	1041291179													-0.251856	-0.920990	-0.983479	0.293998	-0.806097	0.513587	-0.262456	0.448595	0.854330	-0.919066	-0.385966	-0.079679
54	1041307846													0.286601	-0.379611	-2.380391	0.288997	-0.826461	0.483160	-0.242855	0.424895	0.872058	-0.926014	-0.369360	-0.077917
55	1041324513													0.445344	-3.280608	-3.099714	0.269691	-0.853775	0.445348	-0.213567	0.397934	0.892209	-0.938965	-0.335732	-0.075019
56	1041341180													0.995256	-4.923934	-2.263354	0.233823	-0.885472	0.401579	-0.177194	0.367303	0.913067	-0.955996	-0.284654	-0.071017
57	1041357847													2.220074	-4.980030	-1.171787	0.193881	-0.914409	0.355339	-0.134731	0.333961	0.932908	-0.971729	-0.228748	-0.058451
58	1041374514													4.454029	-4.185604	-0.949952	0.163561	-0.936922	0.308908	-0.094749	0.296758	0.950241	-0.981973	-0.184691	-0.040235
59	1041391181													6.617166	-2.436733	-0.308901	0.137205	-0.951376	0.275787	-0.062644	0.269528	0.960953	-0.988560	-0.149124	-0.022618
60	1041407848													6.443852	-1.163319	-0.177223	0.119255	-0.960866	0.250029	-0.042416	0.246666	0.968172	-0.991957	-0.126064	-0.011340
61	1041424515													5.954845	-0.828434	-1.285227	0.098046	-0.968755	0.227817	-0.027470	0.226198	0.973694	-0.994803	-0.101725	-0.004434
62	1041441182													1.804299	-1.169062	-0.934302	0.067214	-0.975645	0.208802	-0.014332	0.208310	0.977958	-0.997636	-0.068725	0.000019
63	1041457849													0.132222	-0.790101	-0.607883	0.036816	-0.980317	0.193969	-0.002306	0.194017	0.980995	-0.999319	-0.036564	0.004882
64	1041474516													-0.657678	-0.449138	-0.780415	0.012159	-0.982384	0.186480	0.010037	0.186604	0.982384	-0.999876	-0.010073	0.012129
65	1041491183													0.043377	0.228159	-1.069586	-0.010257	-0.984280	0.176316	0.023248	0.176043	0.984108	-0.999677	0.014193	0.021077
66	1041507850													1.128211	0.473074	-0.527274	-0.033983	-0.985825	0.164297	0.035524	0.163097	0.985970	-0.998791	0.039342	0.029478
67	1041524517													0.793570	0.614203	-0.090185	-0.059803	-0.986382	0.153214	0.045965	0.150605	0.987525	-0.997151	0.066099	0.036333
68	1041541184													-0.093107	1.466019	-0.204105	-0.087804	-0.986795	0.136110	0.055313	0.131597	0.989759	-0.994601	0.094433	0.043028
69	1041557851													0.345645	0.570899	0.172359	-0.114558	-0.985473	0.125379	0.066421	0.118329	0.990750	-0.991194	0.121826	0.051901
70	1041574518													0.140463	0.029628	-0.687296	-0.139291	-0.983384	0.116425	0.078696	0.106206	0.991225	-0.987120	0.147231	0.062595
71	1041591185													0.212274	-1.326917	-1.661149	-0.165332	-0.980116	0.109720	0.091755	0.095482	0.991193	-0.981961	0.173943	0.074144
72	1041607852													-0.126880	-2.997149	-1.356402	-0.198619	-0.974849	0.101094	0.103998	0.081603	0.991224	-0.974543	0.207390	0.085174
73	1041624519													-0.531342	-1.937035	-0.530087	-0.238199	-0.967786	0.081557	0.113638	0.055625	0.991964	-0.964545	0.245553	0.096728
74	1041641186													0.145471	-0.423379	-0.494283	-0.274318	-0.959610	0.062439	0.121280	0.029888	0.992168	-0.953961	0.279742	0.108183
75	1041657853													-0.366515	0.140216	-0.431746	-0.301383	-0.951906	0.055156	0.129597	0.016414	0.991431	-0.944655	0.305949	0.118417
76	1041674520													-0.665184	1.476754	-0.194254	-0.329331	-0.942914	0.049536	0.136446	0.004387	0.990638	-0.934304	0.333007	0.127212
77	1041691187													-1.024325	2.689363	-0.647640	-0.356827	-0.933097	0.044774	0.142318	-0.006929	0.989797	-0.923266	0.359558	0.135269
78	1041707854													-1.841954	2.711130	-0.733324	-0.382796	-0.922958	0.040191	0.148279	-0.018441	0.988774	-0.911856	0.384458	0.143915
79	1041724521													-2.110026	2.685152	-0.012819	-0.406727	-0.912905	0.034324	0.154246	-0.031592	0.987527	-0.900434	0.406949	0.153661
80	1041741188													-2.171938	2.779445	1.354167	-0.426318	-0.904154	0.027545	0.160690	-0.045730	0.985945	-0.890186	0.424752	0.164784
81	1041757855													-1.588925	3.522089	1.064051	-0.441915	-0.896883	0.017641	0.166197	-0.062533	0.984108	-0.881527	0.437824	0.176694
82	1041774522													-0.615837	4.485531	1.007574	-0.453404	-0.891293	0.004729	0.170309	-0.081426	0.982021	-0.874883	0.446057	0.188714
83	1041791189													0.049560	3.917774	0.997927	-0.459083	-0.888348	-0.009005	0.172203	-0.098927	0.980081	-0.871544	0.448388	0.198392
84	1041807856													-0.019777	3.181190	0.581277	-0.462572	-0.886215	-0.025494	0.169637	-0.116695	0.978573	-0.870201	0.448336	0.204315
85	1041824523													-0.464844	3.527205	0.620641	-0.465769	-0.883832	-0.043589	0.162445	-0.133820	0.977601	-0.869868	0.448256	0.205904
86	1041841190													-1.329286	3.194141	0.762988	-0.465599	-0.883028	-0.058987	0.154094	-0.146523	0.977131	-0.871477	0.445862	0.204291
87	1041857857													-1.403990	3.487138	1.021708	-0.463539	-0.883350	-0.069465	0.146422	-0.153681	0.977212	-0.873895	0.442804	0.200579
88	1041874524													-1.248174	4.288169	3.917970	-0.462346	-0.883502	-0.075239	0.135980	-0.154497	0.978591	-0.876211	0.442216	0.191570
89	1041891191													-1.041871	4.110478	4.315263	-0.452648	-0.888516	-0.075160	0.129873	-0.149083	0.980259	-0.882181	0.433951	0.182876
90	1041907858													-0.792715	3.863713	3.272303	-0.431363	-0.899452	-0.070081	0.127513	-0.137684	0.982234	-0.893122	0.414763	0.174084
91	1041924525													-1.205915	4.339345	2.149976	-0.403242	-0.913305	-0.057182	0.125630	-0.117147	0.985136	-0.906429	0.390065	0.161977
92	1041941192													-1.704385	4.584522	1.316703	-0.370787	-0.927676	-0.043983	0.118301	-0.094152	0.988504	-0.921152	0.361321	0.144655
93	1041957859													-1.863628	3.402423	-1.243522	-0.331413	-0.943037	-0.029088	0.110557	-0.069435	0.991441	-0.936986	0.325360	0.127271
94	1041974526													-1.278615	2.033358	-1.883026	-0.287669	-0.957666	-0.011040	0.100935	-0.041779	0.994015	-0.952396	0.284833	0.108680
95	1041991193													0.632951	1.453489	-1.132393	-0.246520	-0.969076	0.010961	0.081453	-0.009448	0.996632	-0.965709	0.246582	0.081263
96	1042007860													1.851188	2.070755	2.372637	-0.206347	-0.977899	0.033669	0.048817	0.024078	0.998517	-0.977260	0.207685	0.042769
97	1042024527													1.830983	1.587689	5.621444	-0.160148	-0.985614	0.054024	0.007295	0.053547	0.998539	-0.987066	0.160308	-0.001385
98	1042041194													1.885928	-0.846297	7.427839	-0.105394	-0.991780	0.072561	-0.028273	0.075926	0.996713	-0.994029	0.102996	-0.036043
99	1042057861													2.288486	-3.490400	4.170105	-0.048956	-0.994327	0.094435	-0.050003	0.096869	0.994040	-0.997549	0.043942	-0.054462
100	1042074528													2.323052	-3.312649	0.441236	-0.005921	-0.992552	0.121676	-0.066344	0.121800	0.990335	-0.997779	-0.002209	-0.066571
101	1042091195													2.775573	-2.677268	-0.587599	0.026658	-0.987554	0.155005	-0.082475	0.152359	0.984878	-0.996237	-0.039039	-0.077387
102	1042107862													5.228609	-4.295581	0.217522	0.054573	-0.978632	0.198244	-0.099828	0.192198	0.976265	-0.993507	-0.073068	-0.087206
103	1042124529													2.570759	-2.308375	-1.299497	0.079075	-0.968664	0.235450	-0.118865	0.225342	0.967002	-0.989757	-0.104453	-0.097321
104	1042141196													1.758180	-3.195885	0.076031	0.105597	-0.955934	0.273932	-0.137853	0.258740	0.956060	-0.984807	-0.138719	-0.104456
105	1042157863													2.227625	-3.329464	-0.254957	0.139926	-0.940418	0.309896	-0.156346	0.288064	0.944762	-0.977740	-0.180648	-0.106723
106	1042174530													2.628325	-3.078822	-2.183806	0.172869	-0.922540	0.345017	-0.173651	0.316257	0.932645	-0.969516	-0.221138	-0.105529
107	1042191197													1.948106	-3.508597	-3.031643	0.201299	-0.901210	0.383796	-0.190580	0.348295	0.917807	-0.960811	-0.257898	-0.101641
108	1042207864													1.153222	-3.296212	-4.499956	0.224326	-0.879204	0.420330	-0.206507	0.378640	0.902212	-0.952383	-0.289191	-0.096623
109	1042224531													0.583430	-2.826049	-5.457270	0.237445	-0.859769	0.452125	-0.219870	0.405789	0.887126	-0.946191	-0.310052	-0.092685
110	1042241198													-0.363890	-2.601115	-5.455236	0.244131	-0.841271	0.482352	-0.229216	0.433248	0.871640	-0.942263	-0.323357	-0.087064
111	1042257865													-1.200042	-1.429782	-5.291895	0.247214	-0.825690	0.507072	-0.233947	0.456971	0.858165	-0.940295	-0.330778	-0.080198
112	1042274532													-1.424035	-0.966659	-5.202407	0.247555	-0.813675	0.525975	-0.235112	0.476195	0.847325	-0.939914	-0.333423	-0.073421
113	1042291199													-1.639012	-0.520787	-4.711690	0.244890	-0.806122	0.538698	-0.232147	0.490702	0.839833	-0.941348	-0.330724	-0.066970
114	1042307866													-0.870266	-0.778072	-4.307271	0.242229	-0.802008	0.545993	-0.225201	0.500906	0.835690	-0.943721	-0.325386	-0.059279
115	1042324533													-0.497628	-0.376376	-3.304925	0.241785	-0.800589	0.548267	-0.214013	0.507118	0.834883	-0.946434	-0.319199	-0.048723
116	1042341200													0.382497	0.825871	-1.233882	0.244302	-0.804045	0.542059	-0.196219	0.506443	0.839651	-0.949639	-0.311491	-0.034043
117	1042357867													1.003924	2.578015	2.258304	0.253521	-0.812902	0.524326	-0.170025	0.496149	0.851427	-0.952270	-0.305003	-0.012429
118	1042374534													-1.256131	3.616251	5.597085	0.267058	-0.823511	0.500509	-0.141192	0.480332	0.865648	-0.953281	-0.301846	0.012003
119	1042391201													-4.782908	1.801675	6.930017	0.277877	-0.826172	0.490127	-0.121893	0.475772	0.871082	-0.952852	-0.301797	0.031501
120	1042407868													-5.143961	1.568933	5.337066	0.283623	-0.820086	0.497007	-0.121984	0.483225	0.866956	-0.951146	-0.306516	0.037017
121	1042424535													-2.291191	3.254033	2.223590	0.282758	-0.802987	0.524651	-0.141162	0.506181	0.850796	-0.948747	-0.314630	0.029776
122	1042441202													-1.101676	3.454058	-1.148579	0.289354	-0.772963	0.564626	-0.167078	0.540020	0.824902	-0.942528	-0.333025	0.027112
123	1042457869													-0.883287	2.095383	-3.128704	0.300260	-0.741270	0.600302	-0.190207	0.570172	0.799203	-0.934701	-0.354150	0.030205
124	1042474536													-1.397844	0.746034	-1.831479	0.309285	-0.716900	0.624817	-0.207993	0.590128	0.780056	-0.927945	-0.371217	0.033407
125	1042491203													-1.552750	-0.039599	2.961908	0.326297	-0.703380	0.631495	-0.219232	0.593533	0.774375	-0.919493	-0.391120	0.039465
126	1042507870													-2.203316	-2.187559	6.025080	0.317333	-0.704393	0.634925	-0.230047	0.592352	0.772139	-0.919988	-0.391088	0.025929
127	1042524537													-3.766617	-0.550464	5.011375	0.289561	-0.710904	0.640913	-0.241297	0.593755	0.767613	-0.926245	-0.376921	0.000389
128	1042541204													-5.328495	1.603014	1.324769	0.273694	-0.718609	0.639291	-0.246287	0.590148	0.768810	-0.929750	-0.367867	-0.015465
129	1042557871													-1.827304	0.250706	2.955877	0.267098	-0.730722	0.628254	-0.247981	0.577867	0.777544	-0.931216	-0.363476	-0.026858
130	1042574538													-1.154659	-0.228776	1.590540	0.261810	-0.744902	0.613658	-0.245884	0.563373	0.788766	-0.933272	-0.357395	-0.035663
131	1042591205													-0.696730	1.055186	-1.917487	0.260972	-0.763193	0.591126	-0.236038	0.543311	0.805667	-0.936045	-0.349784	-0.038354
132	1042607872													-0.700083	-0.795326	-4.503901	0.256505	-0.788140	0.559500	-0.214892	0.517876	0.828025	-0.942352	-0.332625	-0.036527
133	1042624539													-0.550768	-4.103108	-5.050946	0.246183	-0.820769	0.515492	-0.180525	0.483723	0.856401	-0.952263	-0.303891	-0.029085
134	1042641206													0.836771	-5.169615	-3.818586	0.229221	-0.857059	0.461418	-0.138771	0.440423	0.887001	-0.963431	-0.267351	-0.017981
135	1042657873													3.005256	-5.242171	-1.864006	0.206935	-0.888800	0.408917	-0.097424	0.397166	0.912561	-0.973492	-0.228679	-0.004403
136	1042674540													5.810007	-4.825252	0.563949	0.181604	-0.913024	0.365250	-0.063507	0.359761	0.930881	-0.981319	-0.192247	0.007350
137	1042691207													7.337425	-3.598571	0.854745	0.155837	-0.930803	0.330638	-0.043591	0.327920	0.943699	-0.986820	-0.161477	0.010527
138	1042707874													7.169956	-3.009242	-0.782836	0.130492	-0.942729	0.306975	-0.032969	0.305326	0.951677	-0.990901	-0.134307	0.008762
139	1042724541													5.784444	-2.302905	-1.734380	0.101954	-0.950630	0.293101	-0.022628	0.292344	0.956046	-0.994532	-0.104105	0.008295
140	1042741208													2.972937	-2.584486	-0.165764	0.071843	-0.953439	0.292904	-0.012806	0.292757	0.956101	-0.997334	-0.072440	0.008823
141	1042757875													0.110484	-1.897409	-0.038953	0.048322	-0.950734	0.306218	-0.004293	0.306376	0.951901	-0.998823	-0.047312	0.010723
142	1042774542													-0.119214	-0.777913	-0.528281	0.024943	-0.948077	0.317060	0.006365	0.317303	0.948303	-0.999669	-0.021636	0.013949
143	1042791209													1.001082	-0.789824	-0.286195	0.000082	-0.945321	0.326143	0.018640	0.326087	0.945156	-0.999826	0.006002	0.017648
144	1042807876													-0.146816	0.052689	-0.677400	-0.029602	-0.943833	0.329093	0.032025	0.328173	0.944075	-0.999049	0.038486	0.020512
145	1042824543													-0.674035	1.250586	-0.578852	-0.063733	-0.944628	0.321894	0.046066	0.319421	0.946493	-0.996903	0.075151	0.023158
146	1042841210													-0.862160	0.995762	-0.471880	-0.098549	-0.945003	0.311861	0.060382	0.307131	0.949750	-0.993299	0.112428	0.026794
147	1042857877													-2.035563	1.202946	-0.567770	-0.124430	-0.943670	0.306600	0.074637	0.299224	0.951259	-0.989417	0.141249	0.033200
148	1042874544													-2.106875	1.801429	-1.468703	-0.151224	-0.943357	0.295311	0.087291	0.284836	0.954594	-0.984638	0.170135	0.039272
149	1042891211													-1.144129	1.207604	-1.783360	-0.180326	-0.942118	0.282658	0.098827	0.268561	0.958180	-0.978629	0.200719	0.044678
150	1042907878													-0.489838	0.161946	-1.732161	-0.211938	-0.938996	0.270867	0.109514	0.252599	0.961354	-0.971128	0.233411	0.049298
151	1042924545													-0.273296	-1.168711	-0.528169	-0.246220	-0.933621	0.260245	0.119321	0.237270	0.964088	-0.961841	0.268430	0.052980
152	1042941212													-0.260386	-1.528809	0.520696	-0.281293	-0.927261	0.247107	0.126203	0.219522	0.967410	-0.951287	0.303311	0.055273
153	1042957879													0.171969	-0.435521	0.512915	-0.311222	-0.921289	0.233167	0.130677	0.201534	0.970725	-0.941310	0.332581	0.057670
154	1042974546													0.264415	1.884998	-0.180127	-0.335709	-0.915448	0.221931	0.133969	0.186808	0.973219	-0.932390	0.356450	0.059928
155	1042991213													-0.142739	3.826809	-0.923663	-0.356521	-0.909257	0.214812	0.138957	0.175758	0.974577	-0.923896	0.377306	0.063686
156	1043007880													-0.158763	4.451484	-1.233251	-0.377083	-0.901985	0.210314	0.145991	0.166353	0.975199	-0.914601	0.398435	0.068953
157	1043024547													-0.034520	3.713606	-0.728210	-0.398537	-0.894497	0.202593	0.152243	0.153307	0.976380	-0.904428	0.419968	0.075082
158	1043041214													0.371758	2.951877	0.652574	-0.420408	-0.887067	0.190706	0.156845	0.135969	0.978219	-0.893676	0.441162	0.081969
159	1043057881													0.614396	2.346789	1.531894	-0.438847	-0.880729	0.178129	0.158685	0.119160	0.980112	-0.884439	0.458386	0.087465
160	1043074548													0.823204	2.535095	1.397069	-0.453535	-0.875332	0.167631	0.157597	0.106357	0.981759	-0.877194	0.471680	0.089713
161	1043091215													0.838067	2.967043	1.713522	-0.465982	-0.871027	0.155473	0.152193	0.094192	0.983852	-0.871606	0.482120	0.088673
162	1043107882													0.987315	3.435738	2.306590	-0.475419	-0.868459	0.140555	0.143445	0.081105	0.986329	-0.867986	0.489082	0.086017
163	1043124549													1.047390	4.314564	3.532620	-0.482823	-0.866151	0.129090	0.135386	0.071809	0.988187	-0.865189	0.494597	0.082594
164	1043141216													1.105464	5.216732	5.193451	-0.487285	-0.864657	0.122156	0.128702	0.067248	0.989401	-0.863707	0.497842	0.078514
165	1043157883													0.952764	5.997288	3.540506	-0.481391	-0.867770	0.123445	0.128278	0.069572	0.989295	-0.867069	0.492073	0.077824
166	1043174550													0.719690	5.652006	3.057976	-0.466879	-0.874342	0.132480	0.132124	0.079161	0.988067	-0.874395	0.478812	0.078563
167	1043191217													-0.496113	4.776029	2.749916	-0.444436	-0.883503	0.147982	0.134734	0.097387	0.986084	-0.885620	0.458190	0.075755
168	1043207884													-2.567717	3.029842	0.638766	-0.415378	-0.894363	0.166062	0.134088	0.120362	0.983633	-0.899712	0.430846	0.069927
169	1043224551													-3.976219	2.017586	-1.027868	-0.382049	-0.905735	0.183529	0.131073	0.143479	0.980935	-0.914800	0.398821	0.063901
170	1043241218													-2.839514	2.130196	-2.539125	-0.344747	-0.916806	0.201536	0.125846	0.167620	0.977787	-0.930222	0.362452	0.057589
171	1043257885													-1.033655	2.391711	-2.320267	-0.302759	-0.927177	0.220636	0.116244	0.193849	0.974120	-0.945951	0.320572	0.049089
172	1043274552													-0.169562	1.767440	-0.902309	-0.261195	-0.936849	0.232573	0.093502	0.215249	0.972073	-0.960747	0.275647	0.031375
173	1043291219													0.697573	0.978961	3.590570	-0.218064	-0.947701	0.233049	0.054660	0.226561	0.972462	-0.974403	0.224797	0.002396
174	1043307886													1.358658	-0.902975	7.256115	-0.167248	-0.956748	0.238036	0.014250	0.239066	0.970899	-0.985812	0.165773	-0.026350
175	1043324553													1.249385	-3.157668	6.155882	-0.107039	-0.960397	0.257256	-0.010169	0.259786	0.965613	-0.994203	0.100742	-0.037573
176	1043341220													1.551380	-4.389107	1.978209	-0.055598	-0.957079	0.284446	-0.024603	0.286113	0.957880	-0.998150	0.046258	-0.039454
177	1043357887													2.220057	-3.714590	0.857314	-0.014722	-0.950675	0.309838	-0.038478	0.310181	0.949899	-0.999151	0.002062	-0.041146
178	1043374554													3.426230	-4.561408	1.299921	0.026737	-0.938396	0.344525	-0.051475	0.342899	0.937961	-0.998316	-0.042813	-0.039136
179	1043391221													0.941616	-2.969053	-0.269371	0.067323	-0.923285	0.378171	-0.069405	0.373779	0.924918	-0.995314	-0.088515	-0.038916
180	1043407888													0.556189	-2.460388	0.676688	0.102847	-0.907628	0.406982	-0.090006	0.398981	0.912531	-0.990617	-0.130482	-0.040658
181	1043424555													0.881059	-3.161892	0.659973	0.139138	-0.890176	0.433852	-0.110812	0.421366	0.900095	-0.984054	-0.173313	-0.040014
182	1043441222													0.582632	-3.506489	-1.428983	0.177603	-0.867389	0.464859	-0.134762	0.446482	0.884586	-0.974831	-0.219750	-0.037595
183	1043457889													0.544330	-3.196595	-2.657647	0.210982	-0.843459	0.494028	-0.158051	0.469318	0.868769	-0.964628	-0.261376	-0.034292
184	1043474556													1.023111	-3.834063	-3.490513	0.236624	-0.819763	0.521534	-0.179363	0.490696	0.852670	-0.954902	-0.295306	-0.030924
185	1043491223													0.662491	-3.707521	-4.507436	0.258325	-0.795955	0.547471	-0.196664	0.511511	0.836469	-0.945829	-0.323748	-0.024399
186	1043507890													0.091496	-2.434608	-5.214431	0.273799	-0.774407	0.570375	-0.209600	0.530740	0.821208	-0.938670	-0.344397	-0.017000
187	1043524557													-0.229790	-1.379732	-5.410652	0.282348	-0.756723	0.589619	-0.218690	0.547670	0.807609	-0.934053	-0.356970	-0.010854
188	1043541224													-0.443545	-0.938319	-5.367898	0.284425	-0.741995	0.607079	-0.224931	0.563910	0.794614	-0.931938	-0.362559	-0.006508
189	1043557891													-0.760054	-0.705955	-5.127191	0.281543	-0.731363	0.621162	-0.227334	0.578077	0.783675	-0.932230	-0.361849	-0.003510
190	1043574558													-0.631712	-0.583263	-5.049499	0.275628	-0.724999	0.631194	-0.224588	0.589887	0.775625	-0.934660	-0.355542	-0.000237
191	1043591225													-0.666266	-0.548591	-3.956054	0.268055	-0.721530	0.638390	-0.215308	0.601013	0.769692	-0.939036	-0.343771	0.005753
192	1043607892													-0.481625	-0.289125	-3.007076	0.263868	-0.720237	0.641586	-0.199046	0.610184	0.766848	-0.943798	-0.330052	0.017648
193	1043624559													-0.036669	0.576571	-1.291324	0.265073	-0.723047	0.637918	-0.175408	0.614386	0.769261	-0.948139	-0.315806	0.036029
194	1043641226													-0.200661	2.005733	1.157696	0.273626	-0.730824	0.625319	-0.146254	0.610957	0.778037	-0.950652	-0.304347	0.060288
195	1043657893													-1.785429	3.250487	2.878150	0.283812	-0.739904	0.609912	-0.119314	0.603873	0.788100	-0.951428	-0.296443	0.083106
196	1043674560													-5.245645	2.531585	4.097632	0.285346	-0.745054	0.602886	-0.105835	0.600697	0.792441	-0.952563	-0.289927	0.092553
197	1043691227													-4.189136	2.301910	4.983192	0.275707	-0.739932	0.613585	-0.116019	0.608043	0.785381	-0.954214	-0.287723	0.081795
198	1043707894													-1.105758	3.651734	3.299051	0.263396	-0.717240	0.645127	-0.143980	0.632023	0.761457	-0.953883	-0.293450	0.063204
199	1043724561													-0.918865	2.951022	1.159229	0.264870	-0.682711	0.680992	-0.171541	0.661590	0.729981	-0.948903	-0.310168	0.058122
200	1043741228													-3.031025	2.409655	0.465837	0.279875	-0.651250	0.705367	-0.191259	0.682179	0.705728	-0.940792	-0.332424	0.066367
201	1043757895													-2.560907	0.807032	5.385165	0.304900	-0.633237	0.711369	-0.207041	0.685000	0.698505	-0.929607	-0.360257	0.077751
202	1043774562													-5.864803	-0.469018	8.072863	0.305853	-0.635983	0.708505	-0.222350	0.675874	0.702677	-0.925751	-0.372453	0.065307
203	1043791229													-9.230917	-0.525934	3.665072	0.294734	-0.652454	0.698166	-0.235323	0.658562	0.714786	-0.926151	-0.374966	0.040563
204	1043807896													-3.728951	0.831283	0.612789	0.293326	-0.668621	0.683306	-0.239795	0.640439	0.729613	-0.925450	-0.377868	0.027525
205	1043824563													0.699001	0.509529	0.111631	0.296835	-0.680110	0.670328	-0.239997	0.626303	0.741718	-0.924278	-0.381045	0.022684
206	1043841230													-0.357317	-0.738517	-1.987791	0.304222	-0.702452	0.643436	-0.226846	0.602599	0.765124	-0.925197	-0.378729	0.023975
207	1043857897													-0.389229	-0.870552	-4.242282	0.307506	-0.734252	0.605239	-0.200768	0.571675	0.795538	-0.930125	-0.366145	0.028379
208	1043874564													-0.975619	-2.928779	-4.990944	0.295747	-0.770970	0.564038	-0.167151	0.539576	0.825178	-0.940529	-0.338323	0.030710
209	1043891231													0.098323	-5.166579	-3.529220	0.266474	-0.810174	0.522121	-0.132173	0.505874	0.852421	-0.954736	-0.296159	0.027719
210	1043907898													2.388429	-5.817028	-1.217942	0.231911	-0.846387	0.479422	-0.095455	0.470679	0.877126	-0.968042	-0.249179	0.028364
211	1043924565													4.180765	-5.689884	-0.177775	0.200803	-0.876518	0.437487	-0.058336	0.435091	0.898495	-0.977893	-0.205941	0.036235
212	1043941232													5.711923	-4.795748	0.145102	0.175770	-0.896854	0.405905	-0.028390	0.407535	0.912748	-0.984022	-0.171957	0.046170
213	1043957899													5.580226	-2.774008	-0.130659	0.157801	-0.911464	0.379911	-0.008726	0.383429	0.923529	-0.987432	-0.149049	0.052552
214	1043974566													5.590721	-2.347174	-0.420838	0.141792	-0.920572	0.363927	0.005844	0.368414	0.929644	-0.989879	-0.129689	0.057618
215	1043991233													2.689051	-2.323348	-1.205708	0.118659	-0.927461	0.354593	0.019121	0.359184	0.933071	-0.992751	-0.103936	0.060355
216	1044007900													0.855116	-2.195087	-0.242656	0.088953	-0.932238	0.350741	0.031820	0.354617	0.934470	-0.995527	-0.071963	0.061208
217	1044024567													-1.267925	-0.525941	-1.072195	0.064144	-0.934807	0.349315	0.044669	0.352374	0.934792	-0.996940	-0.044358	0.064360
218	1044041234													-0.286530	0.370631	-0.960703	0.036864	-0.939584	0.340328	0.060179	0.342029	0.937761	-0.997507	-0.014089	0.069151
219	1044057901													0.644115	0.010169	-1.147528	0.008461	-0.943458	0.331385	0.075439	0.331055	0.940591	-0.997115	0.017041	0.073974
220	1044074568													0.676865	-0.125217	-0.706091	-0.024480	-0.946089	0.322980	0.089739	0.319693	0.943262	-0.995664	0.052075	0.077075
221	1044091235													0.407874	-0.009940	-0.324659	-0.060480	-0.948420	0.311194	0.102790	0.304190	0.947049	-0.992863	0.089266	0.079091
222	1044107902													-0.444470	0.288159	-0.423645	-0.095833	-0.950042	0.297045	0.113279	0.286071	0.951489	-0.988931	0.124834	0.080205
223	1044124569													-0.019205	0.110374	-0.115503	-0.122627	-0.950116	0.286780	0.122606	0.272245	0.954385	-0.984850	0.152194	0.083105
224	1044141236													-1.394262	0.165181	-0.954531	-0.145960	-0.948393	0.281507	0.131335	0.263460	0.955688	-0.980534	0.176464	0.086102
225	1044157903													-1.112314	-0.165546	-0.620701	-0.173531	-0.946691	0.271410	0.139400	0.249205	0.958366	-0.974913	0.204141	0.088724
226	1044174570													-0.780691	-0.487407	-0.669358	-0.202354	-0.944786	0.257743	0.147154	0.230866	0.961794	-0.968193	0.232551	0.092313
227	1044191237													0.250474	-0.210606	-0.408483	-0.232167	-0.941738	0.243368	0.154716	0.211265	0.965106	-0.960292	0.261719	0.096653
228	1044207904													0.097107	-0.474451	0.172779	-0.258553	-0.937788	0.231741	0.162660	0.194208	0.967380	-0.952204	0.287815	0.102328
229	1044224571													0.282294	1.017285	-0.827191	-0.286864	-0.934512	0.210707	0.168334	0.167356	0.971419	-0.943066	0.314134	0.109302
230	1044241238													-0.172928	1.615445	-0.528834	-0.315976	-0.928775	0.193744	0.174734	0.143747	0.974066	-0.932538	0.341635	0.116868
231	1044257905													-0.597293	2.375992	0.157808	-0.341444	-0.922102	0.182053	0.180226	0.125868	0.975539	-0.922461	0.365902	0.123210
232	1044274572													-0.709619	3.071191	0.164794	-0.363107	-0.915807	0.171613	0.183815	0.110156	0.976769	-0.913436	0.386217	0.128341
233	1044291239													-0.232323	3.553717	0.563709	-0.379976	-0.910493	0.163155	0.186738	0.097246	0.977585	-0.905951	0.401926	0.133073
234	1044307906													-0.137452	3.925235	0.304295	-0.392186	-0.906255	0.157768	0.191054	0.087521	0.977670	-0.899827	0.413571	0.138819
235	1044324573													-0.251735	3.936032	0.630888	-0.402636	-0.902886	0.150604	0.194805	0.076240	0.977875	-0.894391	0.423066	0.145189
236	1044341240													0.153557	3.250802	0.611930	-0.412242	-0.900282	0.139821	0.196320	0.062084	0.978572	-0.889671	0.430858	0.151150
237	1044357907													-0.123627	2.093251	0.397396	-0.422027	-0.897722	0.126447	0.195069	0.046290	0.979697	-0.885348	0.438124	0.155582
238	1044374574													-0.463052	1.499893	0.831433	-0.432366	-0.895009	0.109629	0.190257	0.028291	0.981327	-0.881398	0.445150	0.158050
239	1044391241													-0.757809	1.829090	1.363334	-0.440411	-0.893118	0.091536	0.182491	0.010774	0.983148	-0.879053	0.449694	0.158241
240	1044407908													-0.465288	2.947392	1.985828	-0.445265	-0.892088	0.076929	0.174202	-0.002032	0.984708	-0.878290	0.451858	0.156308
241	1044424575													-0.237798	4.614775	3.759427	-0.448672	-0.891100	0.068072	0.165681	-0.008089	0.986146	-0.878205	0.453734	0.151268
242	1044441242													0.305066	5.674375	3.734051	-0.442924	-0.894126	0.066014	0.161798	-0.007293	0.986797	-0.881839	0.447757	0.147898
243	1044457909													0.793601	5.147000	2.488439	-0.424831	-0.902276	0.073597	0.164021	0.003235	0.986451	-0.890290	0.431146	0.146618
244	1044474576													0.608401	4.712705	2.127558	-0.399130	-0.912536	0.089287	0.165975	0.023865	0.985841	-0.901747	0.408299	0.141933
245	1044491243													-0.544968	3.877305	1.844631	-0.368102	-0.923572	0.107309	0.161598	0.050107	0.985584	-0.915635	0.380137	0.130803
253	1044624579													1.439573	-5.205453	2.818579	0.013739	-0.967558	0.252276	-0.018090	0.252018	0.967553	-0.999742	-0.017857	-0.014041
259	1044724581													1.565814	-2.578036	-0.629138	0.183329	-0.896066	0.404297	-0.127661	0.386084	0.913587	-0.974727	-0.219100	-0.043613
260	1044741248													1.660276	-2.951909	-1.243772	0.210998	-0.878938	0.427724	-0.147700	0.403884	0.902808	-0.966263	-0.253665	-0.044601
261	1044757915													1.084999	-3.345627	-2.761880	0.236660	-0.860589	0.450975	-0.167009	0.421220	0.891449	-0.957131	-0.286287	-0.044040
262	1044774582													0.627181	-3.234768	-3.842109	0.256398	-0.841617	0.475332	-0.184085	0.440252	0.878801	-0.948880	-0.312824	-0.042049
263	1044791249													-0.424479	-2.363280	-4.857399	0.267584	-0.825335	0.497213	-0.197034	0.458256	0.866706	-0.943173	-0.329885	-0.039997
264	1044807916													-0.759119	-1.921288	-4.981917	0.271730	-0.812866	0.515181	-0.205532	0.473956	0.856226	-0.940170	-0.338549	-0.038281
265	1044824583													-0.733114	-1.148283	-5.070185	0.271007	-0.803911	0.529417	-0.208750	0.487826	0.847614	-0.939670	-0.340225	-0.035612
266	1044841250													-1.180359	-0.876447	-4.950248	0.267192	-0.796643	0.542189	-0.208065	0.501681	0.839658	-0.940913	-0.337160	-0.031709
267	1044857917													-1.330574	-0.716937	-4.576695	0.262649	-0.792094	0.551002	-0.202989	0.512911	0.834097	-0.943298	-0.330922	-0.026071
268	1044874584													-1.210295	-0.158822	-3.954499	0.259614	-0.791470	0.553332	-0.192766	0.518976	0.832770	-0.946278	-0.322862	-0.017835
269	1044891251													-1.032457	0.880325	-2.725940	0.260720	-0.795379	0.547172	-0.176316	0.518012	0.837004	-0.949177	-0.314699	-0.005182
270	1044907918													-0.312336	1.763220	-1.114040	0.266042	-0.805601	0.529366	-0.153185	0.506847	0.848316	-0.951712	-0.306779	0.011436
271	1044924585													-0.808800	2.696164	1.137435	0.270778	-0.818334	0.506961	-0.127484	0.491513	0.861489	-0.954163	-0.297902	0.028767
272	1044941252													-2.842056	1.489780	3.652146	0.271203	-0.826023	0.494101	-0.108215	0.483918	0.868397	-0.956420	-0.288981	0.041852
273	1044957919													-4.057756	-0.070437	5.352120	0.269730	-0.826739	0.493709	-0.100786	0.485657	0.868320	-0.957647	-0.283971	0.047673
274	1044974586													-1.873546	1.363168	4.388345	0.267079	-0.818647	0.508415	-0.109759	0.498305	0.860026	-0.957404	-0.285498	0.043233
277	1045024587													-2.358425	2.094921	-0.979049	0.286579	-0.749143	0.597208	-0.166975	0.574759	0.801107	-0.943394	-0.329299	0.039626
284	1045141256													-2.474627	-0.814262	-2.788866	0.283485	-0.797624	0.532384	-0.199472	0.493971	0.846288	-0.938002	-0.346106	-0.019070
285	1045157923													-0.440139	-2.217195	-3.721188	0.284995	-0.828443	0.482140	-0.168785	0.451767	0.876024	-0.943552	-0.331040	-0.011077
286	1045174590													1.378618	-3.696382	-2.829865	0.271288	-0.858077	0.436013	-0.138263	0.413560	0.899917	-0.952516	-0.304421	-0.006447
287	1045191257													2.114307	-4.497206	-1.610213	0.248721	-0.886787	0.389546	-0.105287	0.375048	0.921007	-0.962836	-0.270088	-0.000085
288	1045207924													3.640333	-4.673811	-1.137991	0.220107	-0.914491	0.339498	-0.069906	0.332350	0.940562	-0.972968	-0.230757	0.009224
289	1045224591													6.680707	-3.604459	-0.084521	0.189186	-0.936088	0.296560	-0.039919	0.294433	0.954838	-0.981130	-0.192480	0.018334
290	1045241258													8.269476	-2.716276	0.187844	0.164774	-0.947294	0.274742	-0.020914	0.275131	0.961179	-0.986110	-0.164123	0.025522
291	1045257925													7.699441	-2.225530	-1.091437	0.152290	-0.951257	0.268174	-0.010216	0.269810	0.962859	-0.988283	-0.149374	0.031372
302	1045441262													-0.570671	-0.132601	-1.225265	-0.106926	-0.952235	0.286033	0.087891	0.277504	0.956696	-0.990375	0.127435	0.054021
303	1045457929													-0.235225	-0.452572	-1.031557	-0.132648	-0.949175	0.285432	0.097430	0.274095	0.956755	-0.986363	0.154721	0.056120
304	1045474596													0.023226	-0.446881	-0.256166	-0.161569	-0.945371	0.283141	0.105698	0.268683	0.957412	-0.981185	0.184616	0.056513
305	1045491263													0.489121	-0.155791	0.140027	-0.189476	-0.940763	0.281182	0.113481	0.263469	0.957970	-0.975306	0.213421	0.056838
315	1045657933													-0.079920	3.377210	-0.351929	-0.299148	-0.905308	0.301541	0.159930	0.263973	0.951179	-0.940709	0.332769	0.065819
316	1045674600													0.865741	5.964001	0.177936	-0.286741	-0.904518	0.315636	0.147041	0.284014	0.947478	-0.946657	0.318092	0.051563
317	1045691267													1.356038	6.796592	4.702587	-0.273272	-0.901848	0.334653	0.128830	0.310448	0.941820	-0.953271	0.300486	0.031348
318	1045707934													0.136886	1.353626	6.200697	-0.247311	-0.899958	0.359043	0.114276	0.340877	0.933137	-0.962174	0.271805	0.018541
319	1045724601													0.581929	-0.739631	3.372818	-0.218083	-0.899949	0.377535	0.101647	0.363796	0.925916	-0.970622	0.240301	0.012139
322	1045774602													-0.704296	-1.674174	-0.500282	-0.115243	-0.893865	0.433271	0.056939	0.429515	0.901263	-0.991704	0.128534	0.001397
323	1045791269													0.491221	-1.992371	-0.346887	-0.084177	-0.887850	0.452367	0.036362	0.450939	0.891814	-0.995787	0.091520	-0.005675
324	1045807936													1.013404	-2.009920	1.714462	-0.050589	-0.880397	0.471531	0.012892	0.471521	0.881761	-0.998636	0.050687	-0.012504
325	1045824603													1.032074	-3.373573	3.543402	-0.015092	-0.871802	0.489625	-0.016813	0.489833	0.871654	-0.999745	0.004923	-0.022050
326	1045841270													2.327880	-6.169159	4.220915	0.020322	-0.861207	0.507847	-0.046572	0.506585	0.860931	-0.998708	-0.041147	-0.029813
327	1045857937													3.140494	-6.574093	0.647100	0.051742	-0.845125	0.532059	-0.067739	0.528575	0.846179	-0.996360	-0.079824	-0.029898
328	1045874604													4.569416	-5.073813	-1.043527	0.070708	-0.822748	0.563991	-0.081096	0.558793	0.825332	-0.994195	-0.104095	-0.027210
329	1045891271													4.283468	-3.420525	-2.193265	0.083226	-0.794118	0.602038	-0.089295	0.595761	0.798182	-0.992522	-0.120188	-0.021328
330	1045907938													3.341347	-3.713918	-2.323123	0.089115	-0.760727	0.642926	-0.094818	0.636083	0.765773	-0.991498	-0.129203	-0.015445
331	1045924605													1.858021	-4.169701	-1.743459	0.094768	-0.723468	0.683822	-0.100068	0.676511	0.729602	-0.990457	-0.137572	-0.008284
332	1045941272													1.015503	-4.496885	-1.767576	0.101282	-0.684557	0.721889	-0.106427	0.714001	0.692009	-0.989149	-0.146916	-0.000540
333	1045957939													0.318239	-4.308570	-1.795933	0.106197	-0.645138	0.756650	-0.113372	0.748135	0.653789	-0.987861	-0.155214	0.006309
334	1045974606													-0.153066	-3.841709	-2.301486	0.107136	-0.603987	0.789760	-0.119270	0.780789	0.613305	-0.987065	-0.159902	0.011613
335	1045991273													-0.945800	-3.341507	-2.579038	0.100619	-0.560265	0.822179	-0.122813	0.813059	0.569080	-0.987316	-0.158235	0.013002
336	1046007940													-1.891107	-2.794658	-2.409177	0.088821	-0.516379	0.851741	-0.122245	0.843005	0.523831	-0.988518	-0.150648	0.011751
337	1046024607													-2.148505	-2.629496	-1.762757	0.075008	-0.472162	0.878315	-0.117481	0.870478	0.477982	-0.990238	-0.139038	0.009822
338	1046041274													-2.204289	-2.597647	-1.275859	0.059239	-0.429789	0.900984	-0.110369	0.894216	0.433817	-0.992124	-0.125139	0.005537
339	1046057941													-1.580243	-2.529564	-0.375223	0.039729	-0.393865	0.918309	-0.102752	0.912552	0.395842	-0.993913	-0.110085	-0.004215
340	1046074608													-1.213456	-2.009955	0.758406	0.022611	-0.362267	0.931800	-0.095899	0.926954	0.362710	-0.995134	-0.097560	-0.013782
341	1046091275													-1.471643	-1.267879	0.713806	0.012790	-0.332702	0.942945	-0.089252	0.938878	0.332478	-0.995927	-0.088412	-0.017686
342	1046107942													-2.431863	-0.345744	-0.271285	0.003119	-0.299814	0.953993	-0.082014	0.950707	0.299049	-0.996626	-0.079174	-0.021624
343	1046124609													-2.960620	0.646435	-0.614256	-0.012800	-0.255704	0.966670	-0.077043	0.964128	0.254011	-0.996946	-0.071224	-0.032041
344	1046141276													-1.562822	1.403983	-0.431231	-0.027453	-0.195326	0.980354	-0.076905	0.978230	0.192749	-0.996660	-0.070103	-0.041876
345	1046157943													-0.120391	0.870626	-1.393561	-0.031575	-0.127627	0.991319	-0.077227	0.989161	0.124890	-0.996513	-0.072614	-0.041089
346	1046174610													-0.016532	-0.091665	-2.323217	-0.023504	-0.074748	0.996925	-0.071800	0.994752	0.072893	-0.997142	-0.069866	-0.028748
347	1046191277													-0.529867	0.178949	-2.982067	-0.011063	-0.052725	0.998548	-0.058703	0.996921	0.051989	-0.998214	-0.058043	-0.014124
348	1046207944													-3.064308	0.918551	-2.998573	-0.006133	-0.063675	0.997952	-0.038097	0.997261	0.063397	-0.999255	-0.037630	-0.008542
349	1046224611													-4.234043	1.674103	-1.022114	-0.011659	-0.101395	0.994778	-0.013260	0.994774	0.101239	-0.999844	-0.012010	-0.012943
350	1046241278													-1.729774	1.684375	4.275560	-0.023656	-0.142801	0.989469	0.006392	0.989704	0.142988	-0.999700	0.009707	-0.022499
351	1046257945													0.100634	-0.028665	9.803877	-0.039514	-0.165575	0.985405	0.006713	0.986109	0.165963	-0.999196	0.013173	-0.037854
352	1046274612													0.851740	-2.400470	6.027650	-0.041764	-0.168527	0.984812	-0.006066	0.985696	0.168421	-0.999109	0.001060	-0.042189
353	1046291279													2.676482	-3.856752	-2.224305	-0.031562	-0.155320	0.987360	-0.010109	0.987851	0.155075	-0.999451	-0.005087	-0.032749
354	1046307946													2.025421	-3.571687	-4.895719	-0.028431	-0.128962	0.991242	-0.004611	0.991649	0.128882	-0.999585	-0.000907	-0.028788
355	1046324613													-0.645343	-1.920616	-2.913090	-0.031506	-0.096675	0.994817	0.001220	0.995307	0.096761	-0.999503	0.004262	-0.031240
356	1046341280													-1.487737	-0.864167	-1.673618	-0.036043	-0.068812	0.996978	0.002719	0.997616	0.068955	-0.999347	0.005196	-0.035770
357	1046357947													-0.562338	-1.211373	0.209019	-0.046028	-0.047553	0.997808	0.000435	0.998865	0.047624	-0.998940	0.002626	-0.045955
358	1046374614													0.491788	-2.465629	2.001642	-0.054287	-0.025051	0.998211	-0.002574	0.999685	0.024948	-0.998522	-0.001215	-0.054334
359	1046391281													1.455067	-2.867416	1.879141	-0.057304	0.000471	0.998357	-0.002356	0.999997	-0.000607	-0.998354	-0.002386	-0.057303
360	1046407948													2.002315	-3.230480	0.700379	-0.059096	0.026993	0.997887	0.003496	0.999634	-0.026833	-0.998246	0.001903	-0.059169
361	1046424615													1.202414	-2.929710	0.098379	-0.061565	0.053510	0.996668	0.012841	0.998522	-0.052816	-0.998020	0.009547	-0.062161
362	1046441282													0.380242	-2.045340	-0.176960	-0.065033	0.077879	0.994839	0.021378	0.996830	-0.076637	-0.997654	0.016283	-0.066492
363	1046457949													-0.063635	-0.978175	-0.267064	-0.069236	0.101457	0.992428	0.025784	0.994665	-0.099887	-0.997267	0.018673	-0.071482
364	1046474616													-0.399695	-0.008124	-0.201411	-0.073811	0.127623	0.989073	0.025847	0.991689	-0.126031	-0.996937	0.016262	-0.076496
365	1046491283													-0.552025	0.395837	-0.247231	-0.079647	0.156667	0.984435	0.023671	0.987591	-0.155254	-0.996542	0.010937	-0.082367
366	1046507950													-0.633564	-0.071580	-0.361291	-0.085912	0.188701	0.978269	0.020924	0.982025	-0.187588	-0.996083	0.004353	-0.088316
367	1046524617													-0.886947	-0.642124	-0.380988	-0.091549	0.221658	0.970818	0.018819	0.975123	-0.220866	-0.995623	-0.001950	-0.093443
368	1046541284													-1.072458	-0.757078	-0.184188	-0.098182	0.253100	0.962445	0.017691	0.967409	-0.252600	-0.995011	-0.007775	-0.099460
369	1046557951													-0.801174	-0.713436	0.413159	-0.104617	0.280325	0.954187	0.017201	0.959819	-0.280093	-0.994364	-0.012889	-0.105236
370	1046574618													-0.540375	-0.190095	0.614364	-0.109569	0.305110	0.945993	0.018537	0.952185	-0.304960	-0.993806	-0.015878	-0.109986
371	1046591285													0.057103	0.046708	0.737416	-0.109948	0.325889	0.938993	0.021177	0.945274	-0.325590	-0.993712	-0.015913	-0.110832
372	1046607952													0.528119	0.477042	0.437663	-0.104886	0.344583	0.932878	0.023829	0.938654	-0.344037	-0.994199	-0.013855	-0.106663
373	1046624619													0.814349	0.507329	0.110917	-0.097245	0.363009	0.926697	0.025675	0.931716	-0.362280	-0.994929	-0.011437	-0.099925
374	1046641286													0.724664	-0.053790	-0.072238	-0.089774	0.381550	0.919978	0.026137	0.924293	-0.380789	-0.995619	-0.010140	-0.092949
375	1046657953													0.365150	-0.090171	-0.474725	-0.084051	0.400752	0.912323	0.025980	0.916133	-0.400032	-0.996123	-0.009921	-0.087414
376	1046674620													0.330170	-0.347790	-0.771817	-0.081547	0.414888	0.906211	0.026249	0.909818	-0.414177	-0.996324	-0.009988	-0.085084
377	1046691287													0.368144	-0.987677	-0.484544	-0.083164	0.424823	0.901448	0.026810	0.905208	-0.424122	-0.996175	-0.011104	-0.086670
378	1046707954													0.062338	-1.222018	0.014994	-0.087154	0.432774	0.897279	0.025960	0.901388	-0.432234	-0.995857	-0.014378	-0.089795
379	1046724621													-0.150339	-1.170634	0.129412	-0.090567	0.440742	0.893053	0.024047	0.897445	-0.440471	-0.995600	-0.018417	-0.091878
380	1046741288													0.043999	-1.186863	0.120662	-0.091807	0.451492	0.887539	0.022590	0.892019	-0.451434	-0.995521	-0.021396	-0.092093
381	1046757955													0.066626	-1.190412	0.048433	-0.091254	0.464992	0.880599	0.021815	0.885010	-0.465061	-0.995589	-0.023229	-0.090904
382	1046774622													0.043433	-1.148442	-0.184700	-0.091063	0.479835	0.872620	0.021215	0.876997	-0.480027	-0.995619	-0.025200	-0.090041
383	1046791289													0.127822	-1.265480	-0.186474	-0.092086	0.495565	0.863676	0.020651	0.868125	-0.495916	-0.995537	-0.027831	-0.090176
384	1046807956													0.178611	-1.574821	-0.022179	-0.094310	0.512303	0.853611	0.019470	0.858218	-0.512917	-0.995352	-0.031754	-0.090913
385	1046824623													0.115949	-1.607965	-0.063698	-0.096389	0.529243	0.842978	0.017719	0.847699	-0.530181	-0.995186	-0.036167	-0.091086
386	1046841290													-0.009254	-1.574213	-0.273954	-0.097955	0.545214	0.832554	0.015892	0.837328	-0.546470	-0.995064	-0.040299	-0.090685
387	1046857957													-0.052264	-1.425164	-0.459135	-0.100635	0.559359	0.822794	0.013877	0.827701	-0.560997	-0.994827	-0.045038	-0.091057
388	1046874624													0.069691	-1.294039	-0.469219	-0.104940	0.572449	0.813197	0.011297	0.818346	-0.574615	-0.994414	-0.051113	-0.092345
389	1046891291													0.121186	-1.202853	-0.481484	-0.110320	0.585134	0.803397	0.008672	0.808867	-0.587927	-0.993858	-0.057893	-0.094309
390	1046907958													0.295381	-1.094036	-0.337163	-0.116537	0.596430	0.794160	0.005670	0.799995	-0.599980	-0.993170	-0.065417	-0.096611
391	1046924625													0.230462	-1.091619	-0.207798	-0.123257	0.605358	0.786352	0.001584	0.792513	-0.609853	-0.992373	-0.073923	-0.098642
392	1046941292													0.322664	-0.926030	-0.276069	-0.129324	0.613038	0.779397	-0.002936	0.785757	-0.618528	-0.991598	-0.082279	-0.099817
393	1046957959													0.165570	-1.472481	-0.631609	-0.135894	0.621052	0.771899	-0.006896	0.778515	-0.627589	-0.990699	-0.090609	-0.101512
394	1046974626													-0.045035	-1.706362	-0.657995	-0.142874	0.629803	0.763502	-0.010164	0.770442	-0.637429	-0.989689	-0.098833	-0.103675
395	1046991293													-0.290099	-1.724437	-0.771316	-0.151104	0.638861	0.754337	-0.012985	0.761750	-0.647741	-0.988433	-0.107672	-0.106808
396	1047007960													-0.471229	-1.647898	-0.833651	-0.160737	0.647094	0.745274	-0.015578	0.753335	-0.657453	-0.986874	-0.117287	-0.111008
397	1047024627													-0.501363	-2.085033	-1.100778	-0.171720	0.655604	0.735320	-0.017477	0.744262	-0.667659	-0.984991	-0.127501	-0.116347
398	1047041294													-0.363750	-2.028252	-0.974950	-0.185476	0.664410	0.723987	-0.019351	0.734159	-0.678702	-0.982458	-0.139893	-0.123312
399	1047057961													-0.184253	-2.401403	-0.804708	-0.200522	0.673607	0.711368	-0.020960	0.723000	-0.690529	-0.979465	-0.153377	-0.130858
400	1047074628													-0.209996	-2.582173	-0.376376	-0.215673	0.684268	0.696608	-0.021881	0.709832	-0.704031	-0.976220	-0.167083	-0.138119
401	1047091295													-0.325620	-2.125027	-0.026351	-0.228547	0.695840	0.680862	-0.022142	0.695476	-0.718208	-0.973281	-0.179219	-0.143541
402	1047107962													-0.605904	-1.547906	-0.081349	-0.238046	0.705793	0.667225	-0.023043	0.682676	-0.730358	-0.970980	-0.189234	-0.146245
403	1047124629													-0.401868	-0.573899	0.433569	-0.247529	0.709375	0.659936	-0.028106	0.675589	-0.736743	-0.968473	-0.200913	-0.147290
404	1047141296													0.350699	0.193358	1.396890	-0.255558	0.707674	0.658702	-0.038193	0.673404	-0.738287	-0.966039	-0.213833	-0.145066
405	1047157963													1.758739	-0.008683	2.069304	-0.262798	0.704406	0.659356	-0.052099	0.672019	-0.738699	-0.963443	-0.228480	-0.139906
406	1047174630													3.182053	-0.741377	2.578200	-0.268739	0.705011	0.656307	-0.066504	0.666166	-0.742833	-0.960915	-0.243275	-0.132139
407	1047191297													4.347575	-1.706407	2.099106	-0.270838	0.714569	0.645010	-0.078661	0.651384	-0.754660	-0.959406	-0.255128	-0.120210
408	1047207964													5.219601	-2.333286	1.202143	-0.273018	0.733540	0.622399	-0.089411	0.624829	-0.775625	-0.957845	-0.267409	-0.105003
409	1047224631													5.623822	-3.555349	0.136592	-0.274259	0.759266	0.590167	-0.100764	0.587631	-0.802830	-0.956362	-0.279651	-0.084656
410	1047241298													5.219002	-3.969248	-0.468771	-0.268156	0.789187	0.552518	-0.114744	0.543277	-0.831676	-0.956518	-0.286417	-0.055128
411	1047257965													4.505388	-3.313231	0.483418	-0.254943	0.816880	0.517408	-0.133241	0.500308	-0.855534	-0.957732	-0.287052	-0.018708
412	1047274632													3.267901	-2.972352	3.017725	-0.231178	0.841632	0.488071	-0.153329	0.463874	-0.872532	-0.960753	-0.276546	0.021809
413	1047291299													2.038756	-2.458352	4.709039	-0.200552	0.864552	0.460791	-0.168538	0.432888	-0.885552	-0.965077	-0.255260	0.058893
414	1047307966													0.066224	-1.867892	4.442542	-0.169954	0.883848	0.435808	-0.175639	0.407992	-0.895931	-0.969673	-0.228812	0.085899
415	1047324633													-1.698448	-1.646503	1.329309	-0.145393	0.899216	0.412641	-0.177489	0.386600	-0.905007	-0.973323	-0.204821	0.103392
416	1047341300													-3.457337	-2.051971	-0.610418	-0.125554	0.909898	0.395375	-0.177781	0.371443	-0.911276	-0.976028	-0.184704	0.115126
417	1047357967													-4.516096	-2.226708	-1.088065	-0.107109	0.918135	0.381518	-0.176982	0.359991	-0.916015	-0.978369	-0.165635	0.123935
418	1047374634													-5.604568	-1.608426	-0.390073	-0.085121	0.925917	0.368012	-0.174075	0.349852	-0.920490	-0.981046	-0.142415	0.131399
419	1047391301													-6.310267	-0.722506	-0.187525	-0.057133	0.933391	0.354285	-0.170681	0.340508	-0.924620	-0.983669	-0.113296	0.139858
420	1047407968													-6.334425	-0.446971	-0.624652	-0.025108	0.941042	0.337357	-0.166513	0.328812	-0.929600	-0.985720	-0.079515	0.148439
421	1047424635													-5.608462	0.030340	-0.625172	0.002358	0.950580	0.310471	-0.162826	0.306694	-0.937778	-0.986652	-0.048342	0.155502
422	1047441302													-3.643381	0.572633	-0.831263	0.025378	0.961626	0.273186	-0.160339	0.273652	-0.948370	-0.986736	-0.019735	0.161131
423	1047457969													-2.767813	0.766229	-0.612617	0.045173	0.973393	0.224647	-0.160105	0.229024	-0.960164	-0.986066	0.007406	0.166191
424	1047474636													-2.199713	1.157528	-1.119865	0.063949	0.984587	0.162784	-0.162598	0.171218	-0.971723	-0.984618	0.035673	0.171041
425	1047491303													-2.007887	1.754231	-1.110288	0.080141	0.992638	0.090814	-0.167288	0.103209	-0.980491	-0.982646	0.063385	0.174328
426	1047507970													-1.605685	2.222416	-1.151434	0.093953	0.995469	0.014673	-0.174124	0.030942	-0.984238	-0.980232	0.089917	0.176242
427	1047524637													-0.998670	2.314321	-1.712839	0.104526	0.992707	-0.060064	-0.181897	-0.040293	-0.982492	-0.977746	0.113621	0.176359
428	1047541304													-0.447718	2.305579	-1.933789	0.110331	0.985162	-0.131464	-0.189603	-0.108980	-0.975794	-0.975642	0.132586	0.174765
429	1047557971													0.018423	2.448857	-1.716641	0.112270	0.973576	-0.198862	-0.196414	-0.174436	-0.964880	-0.974072	0.147386	0.171640
430	1047574638													0.922927	2.236764	-1.213462	0.111064	0.958992	-0.260766	-0.202077	-0.235116	-0.950729	-0.973052	0.158287	0.167678
431	1047591305													2.078186	1.699662	-0.871308	0.109224	0.943451	-0.313002	-0.205767	-0.286606	-0.935691	-0.972487	0.166605	0.162827
432	1047607972													2.360843	0.838967	-0.700761	0.108963	0.928856	-0.354053	-0.207617	-0.327053	-0.921917	-0.972123	0.173963	0.157209
433	1047624639													2.452064	0.066411	-0.516106	0.111229	0.915792	-0.385944	-0.208186	-0.358265	-0.910113	-0.971744	0.181579	0.150806
434	1047641306													2.419363	-0.579297	-0.359242	0.115985	0.904879	-0.409562	-0.207553	-0.381162	-0.900909	-0.971323	0.189498	0.143601
435	1047657973													2.164370	-1.045939	-0.389180	0.122310	0.895575	-0.427769	-0.205982	-0.398715	-0.893643	-0.970882	0.197414	0.135705
436	1047674640													2.060073	-1.195385	-0.432043	0.129710	0.888248	-0.440671	-0.203322	-0.411155	-0.888601	-0.970482	0.204859	0.127269
437	1047691307													2.607706	-1.295621	-0.646048	0.137987	0.882383	-0.449843	-0.200198	-0.419964	-0.885184	-0.969990	0.212202	0.118702
438	1047707974													2.355943	-1.290795	-0.916158	0.147627	0.878068	-0.455196	-0.196282	-0.425074	-0.883620	-0.969371	0.219793	0.109596
439	1047724641													2.184708	-1.295501	-0.865500	0.158018	0.874715	-0.458152	-0.191738	-0.427969	-0.883221	-0.968642	0.227410	0.100089
440	1047741308													1.899312	-1.278246	-0.574225	0.167683	0.872397	-0.459136	-0.186779	-0.429181	-0.883695	-0.967986	0.233937	0.090980
441	1047757975													1.619544	-1.060862	-0.266697	0.176180	0.870598	-0.459368	-0.181978	-0.429818	-0.884387	-0.967391	0.239406	0.082704
442	1047774642													1.358555	-1.042711	-0.018792	0.182703	0.869149	-0.459564	-0.177442	-0.430605	-0.884926	-0.967023	0.243225	0.075551
443	1047791309													1.255521	-1.241575	0.143389	0.185819	0.867648	-0.461149	-0.173958	-0.432859	-0.884518	-0.967062	0.244581	0.070501
444	1047807976													0.970034	-0.991863	0.467791	0.185091	0.865241	-0.465939	-0.173876	-0.437817	-0.882090	-0.967217	0.244283	0.069409
445	1047824643													0.422085	-0.699229	0.730307	0.183637	0.860441	-0.475308	-0.176927	-0.446703	-0.877014	-0.966941	0.245146	0.070204
446	1047841310													0.013417	-1.129317	0.241248	0.183706	0.852643	-0.489133	-0.181180	-0.459706	-0.869393	-0.966140	0.248334	0.070031
447	1047857977													-0.578637	-0.896544	-0.336991	0.186001	0.842315	-0.505874	-0.185813	-0.475413	-0.859916	-0.964820	0.253943	0.068086
448	1047874644													-0.978191	-1.071213	1.901266	0.198542	0.830602	-0.520271	-0.190893	-0.487900	-0.851771	-0.961323	0.268428	0.061687
449	1047891311													0.892162	0.780556	5.574140	0.197312	0.826566	-0.527121	-0.200351	-0.492344	-0.847028	-0.959650	0.272738	0.068458
450	1047907978													4.779654	1.591266	3.399966	0.178081	0.828352	-0.531149	-0.210722	-0.495153	-0.842864	-0.961189	0.262023	0.086374
451	1047924645													7.074320	1.103022	1.286139	0.161149	0.830231	-0.533617	-0.217499	-0.497515	-0.839746	-0.962666	0.251385	0.100400
452	1047941312													1.830707	-2.165152	0.764352	0.157832	0.825876	-0.541311	-0.222051	-0.504459	-0.834395	-0.962176	0.251893	0.103767
453	1047957979													0.778075	-3.504720	1.245671	0.164655	0.821527	-0.545877	-0.224078	-0.507804	-0.831819	-0.960561	0.259283	0.100474
454	1047974646													1.249927	-2.012739	-0.062832	0.173710	0.827590	-0.533779	-0.221430	-0.495317	-0.840018	-0.959580	0.264114	0.097211
455	1047991313													-1.399188	-0.910423	-0.142699	0.182854	0.840038	-0.510784	-0.214082	-0.473055	-0.854627	-0.959549	0.265621	0.093337
456	1048007980													-0.906137	1.143318	-1.359817	0.182649	0.857090	-0.481701	-0.201179	-0.446995	-0.871621	-0.962375	0.256109	0.090785
457	1048024647													-0.577975	1.821954	-2.169786	0.167372	0.880603	-0.443311	-0.179395	-0.414944	-0.891986	-0.969435	0.228821	0.088526
458	1048041314													-0.645404	2.175040	-1.930367	0.145151	0.906234	-0.397079	-0.149973	-0.376540	-0.914180	-0.977977	0.192245	0.081255
459	1048057981													-1.672052	2.240937	-1.433469	0.121890	0.928765	-0.350054	-0.117937	-0.336633	-0.934221	-0.985512	0.155156	0.068504
460	1048074648													-3.178327	2.085150	-0.378123	0.101269	0.945474	-0.309554	-0.088274	-0.301387	-0.949407	-0.990935	0.123471	0.052940
461	1048091315													-4.881720	2.036758	-0.132362	0.086993	0.957178	-0.276122	-0.064619	-0.271167	-0.960361	-0.994111	0.101388	0.038262
462	1048107982													-5.724264	1.988360	-0.723784	0.076552	0.964806	-0.251572	-0.047051	-0.248536	-0.967479	-0.995955	0.085899	0.026369
463	1048124649													-4.605334	1.784025	-1.202293	0.066039	0.969960	-0.234130	-0.035214	-0.232231	-0.972023	-0.997195	0.072436	0.018820
464	1048141316													-2.305925	1.252249	-1.293100	0.053488	0.973730	-0.221333	-0.029260	-0.220027	-0.975055	-0.998140	0.058630	0.016723
465	1048157983													-1.396928	0.648151	-1.085578	0.039861	0.976328	-0.212590	-0.027488	-0.211607	-0.976968	-0.998827	0.044787	0.018402
466	1048174650													-0.997855	0.414917	-0.100497	0.025502	0.978274	-0.205741	-0.025386	-0.205108	-0.978410	-0.999352	0.030174	0.019604
467	1048191317													-1.437449	0.023014	0.117480	0.011840	0.980113	-0.198084	-0.020222	-0.197823	-0.980029	-0.999725	0.015610	0.017478
468	1048207984													-1.733666	0.036904	0.204539	-0.004122	0.981224	-0.192826	-0.013053	-0.192864	-0.981139	-0.999906	-0.001527	0.013603
469	1048224651													-1.523506	-0.609506	0.472961	-0.020629	0.982516	-0.185034	-0.004719	-0.185167	-0.982696	-0.999776	-0.019399	0.008457
470	1048241318													-1.112687	-0.947726	0.275168	-0.037158	0.983250	-0.178432	0.005020	-0.178369	-0.983951	-0.999297	-0.037457	0.001692
471	1048257985													-0.816105	-0.930060	-0.146010	-0.055452	0.983394	-0.172806	0.016166	-0.172166	-0.984935	-0.998330	-0.057410	-0.006351
472	1048274652													-0.080229	-1.106196	-0.798802	-0.073441	0.983095	-0.167723	0.027275	-0.166134	-0.985726	-0.996927	-0.076967	-0.014613
473	1048291319													-0.100160	-1.181020	-0.791408	-0.094003	0.982495	-0.160835	0.037221	-0.157969	-0.986742	-0.994876	-0.098743	-0.021720
474	1048307986													0.065236	-0.737734	-0.612157	-0.113417	0.981211	-0.156084	0.045512	-0.151802	-0.987363	-0.992505	-0.119087	-0.027440
475	1048324653													0.084987	-0.995561	-0.719707	-0.133974	0.980104	-0.146451	0.052085	-0.140615	-0.988693	-0.989615	-0.140087	-0.032210
476	1048341320													0.092106	-1.266732	-0.643112	-0.157683	0.978288	-0.134494	0.057468	-0.126876	-0.990252	-0.985816	-0.163875	-0.036214
477	1048357987													-0.204758	-0.990860	-0.136770	-0.180638	0.976105	-0.120786	0.062467	-0.111172	-0.991836	-0.981564	-0.186709	-0.040892
478	1048374654													-0.263203	-0.747393	-0.393955	-0.201562	0.973325	-0.109595	0.067679	-0.097785	-0.992904	-0.977135	-0.207549	-0.046164
479	1048391321													-0.061550	-0.580277	-0.524593	-0.222935	0.969484	-0.101983	0.073656	-0.087565	-0.993432	-0.972047	-0.228982	-0.051887
480	1048407988													-0.171511	-0.574863	-0.478199	-0.246860	0.964340	-0.095434	0.079902	-0.077891	-0.993755	-0.965751	-0.252944	-0.057824
481	1048424655													-0.445515	-0.810306	-0.516086	-0.272049	0.958076	-0.089887	0.086441	-0.068701	-0.993885	-0.958393	-0.278155	-0.064127
482	1048441322													-0.854621	-1.015833	-0.788463	-0.298286	0.950599	-0.085945	0.092853	-0.060717	-0.993827	-0.949949	-0.304425	-0.070155
483	1048457989													-0.789985	-1.193270	-0.635576	-0.324177	0.942372	-0.082726	0.098547	-0.053331	-0.993702	-0.940849	-0.330288	-0.075580
484	1048474656													-0.588376	-1.624339	-0.406848	-0.348434	0.933892	-0.080242	0.103637	-0.046699	-0.993518	-0.931586	-0.354492	-0.080515
485	1048491323													0.016659	-2.191464	0.095587	-0.369871	0.925966	-0.076047	0.107157	-0.038789	-0.993485	-0.922883	-0.375610	-0.084877
486	1048507990													0.384249	-3.056729	0.347387	-0.386929	0.919356	-0.071201	0.109159	-0.031005	-0.993541	-0.915625	-0.392202	-0.088359
487	1048524657													0.387480	-3.796181	0.024636	-0.399058	0.914505	-0.066579	0.110308	-0.024203	-0.993603	-0.910266	-0.403850	-0.091219
488	1048541324													-0.248529	-3.874347	-0.179744	-0.406870	0.911340	-0.062582	0.112803	-0.017859	-0.993457	-0.906495	-0.411267	-0.095535
489	1048557991													-0.468610	-3.571402	0.209701	-0.413736	0.908724	-0.055162	0.113702	-0.008539	-0.993478	-0.903269	-0.417310	-0.099791
490	1048574658													-0.814573	-2.847053	0.051547	-0.420089	0.906285	-0.046618	0.113469	0.001489	-0.993540	-0.900361	-0.422665	-0.103461
491	1048591325													-1.231520	-1.558791	-0.040637	-0.427421	0.903425	-0.033687	0.109839	0.014908	-0.993838	-0.897355	-0.428487	-0.105603
492	1048607992													-0.656770	-1.110570	0.154263	-0.436680	0.899423	-0.018686	0.102919	0.029312	-0.994258	-0.893710	-0.436096	-0.105368
493	1048624659													-0.774191	-1.494171	0.657014	-0.446556	0.894753	-0.002062	0.094385	0.044814	-0.994527	-0.889764	-0.444306	-0.104463
494	1048641326													-0.977184	-2.473634	1.675571	-0.455169	0.890352	0.009681	0.086157	0.054862	-0.994770	-0.886227	-0.451955	-0.101682
495	1048657993													-0.713070	-3.485161	2.836771	-0.465420	0.884838	0.021147	0.077807	0.064703	-0.994867	-0.881664	-0.461385	-0.098960
496	1048674660													-0.517470	-3.967149	2.229440	-0.471240	0.881459	0.031030	0.071304	0.073139	-0.994770	-0.879118	-0.466563	-0.097318
497	1048691327													-0.732067	-3.837155	2.133033	-0.472700	0.880446	0.037013	0.067320	0.077959	-0.994681	-0.878648	-0.467694	-0.096122
498	1048707994													-0.722821	-3.920462	2.641983	-0.469642	0.882024	0.038341	0.063017	0.076808	-0.995052	-0.880605	-0.464903	-0.091655
499	1048724661													-0.289294	-3.833593	2.255001	-0.460597	0.886909	0.035260	0.057886	0.069654	-0.995890	-0.885720	-0.456663	-0.083422
500	1048741328													0.531110	-2.870576	1.039285	-0.443798	0.895728	0.026731	0.053549	0.056284	-0.996978	-0.894526	-0.441025	-0.072943
501	1048757995													1.320350	-2.239666	0.238331	-0.420480	0.907195	0.013917	0.049657	0.038326	-0.998031	-0.905942	-0.418961	-0.061163
502	1048774662													1.600970	-2.085830	-0.612967	-0.392051	0.919940	-0.002482	0.046023	0.016918	-0.998797	-0.918791	-0.391694	-0.048971
503	1048791329													1.274412	-1.903476	-1.759402	-0.361117	0.932215	-0.023861	0.041699	-0.009419	-0.999086	-0.931588	-0.361782	-0.035471
504	1048807996													1.157449	-1.350349	-1.710626	-0.331180	0.942479	-0.045318	0.032085	-0.036752	-0.998809	-0.943022	-0.332240	-0.018068
505	1048824663													0.818020	-1.498372	-0.119229	-0.301655	0.951186	-0.065191	0.013260	-0.064184	-0.997850	-0.953325	-0.301871	0.006749
506	1048841330													-0.267005	-1.887991	2.457590	-0.267317	0.959633	-0.087445	-0.013653	-0.094511	-0.995430	-0.963512	-0.264902	0.038366
507	1048857997													-1.124196	-1.412518	4.460377	-0.224009	0.967591	-0.116566	-0.041313	-0.128926	-0.990793	-0.973711	-0.217131	0.068855
508	1048874664													-2.199401	-0.043619	4.763591	-0.176804	0.973167	-0.147265	-0.062398	-0.160403	-0.985077	-0.982266	-0.164977	0.089083
509	1048891331													-2.706245	1.707215	2.964773	-0.131894	0.975732	-0.174789	-0.074175	-0.185550	-0.979831	-0.988485	-0.116269	0.096847
510	1048907998													-2.975450	2.653331	0.859413	-0.095471	0.975633	-0.197548	-0.080617	-0.205381	-0.975356	-0.992162	-0.077192	0.098260
511	1048924665													-3.516490	2.506926	0.190103	-0.063544	0.974109	-0.216964	-0.085374	-0.221912	-0.971322	-0.994321	-0.043198	0.097265
512	1048941332													-3.320074	2.630635	-0.277484	-0.032231	0.969370	-0.243480	-0.091714	-0.245448	-0.965062	-0.995264	-0.008774	0.096816
513	1048957999													-1.727378	1.675051	-0.656668	-0.003208	0.961938	-0.273248	-0.102420	-0.272128	-0.956795	-0.994736	0.024917	0.099395
514	1048974666													-1.144146	1.925315	-0.409159	0.022809	0.952305	-0.304293	-0.114831	-0.299863	-0.947046	-0.993123	0.056544	0.102515
515	1048991333													-2.662868	2.305930	-0.812326	0.051218	0.940945	-0.334663	-0.127099	-0.326236	-0.936705	-0.990567	0.090511	0.102884
516	1049008000													-2.031276	2.072535	-1.446040	0.078245	0.926800	-0.367315	-0.137912	-0.354839	-0.924700	-0.987349	0.123010	0.100053
517	1049024667													-1.712225	2.236815	-2.471357	0.101887	0.909261	-0.403563	-0.148290	-0.387259	-0.909967	-0.983681	0.152559	0.095378
518	1049041334													-1.452604	1.950851	-2.930340	0.120399	0.890309	-0.439152	-0.157715	-0.419597	-0.893904	-0.980117	0.176886	0.089896
519	1049058001													-0.883819	1.593103	-3.328130	0.132449	0.870931	-0.473219	-0.165838	-0.451224	-0.876866	-0.977218	0.194618	0.084669
520	1049074668													-0.453317	0.686842	-3.220235	0.138538	0.854024	-0.501448	-0.171768	-0.477937	-0.861436	-0.975348	0.205474	0.080481
521	1049091335													-0.121690	-0.060564	-2.556347	0.141710	0.841010	-0.522131	-0.174692	-0.497929	-0.849440	-0.974372	0.211587	0.076356
522	1049108002													0.182994	-0.611258	-2.171201	0.144547	0.831106	-0.536999	-0.175557	-0.512548	-0.840520	-0.973800	0.215769	0.071819
523	1049124669													0.907839	-0.382746	-1.540690	0.147378	0.822001	-0.550085	-0.173992	-0.525939	-0.832535	-0.973656	0.218408	0.065510
524	1049141336													1.536009	-0.138210	-1.221870	0.153325	0.811949	-0.563232	-0.169816	-0.539842	-0.824459	-0.973475	0.222056	0.055111
525	1049158003													1.256529	-0.169362	-2.138823	0.160202	0.801703	-0.575854	-0.163524	-0.553773	-0.816453	-0.973445	0.224963	0.042382
526	1049174670													1.177001	0.001184	-2.154589	0.167797	0.791206	-0.588079	-0.155238	-0.567888	-0.808335	-0.973522	0.226928	0.027535
527	1049191337													0.508456	0.218689	-1.927397	0.175165	0.782873	-0.597015	-0.145403	-0.579170	-0.802135	-0.973743	0.227314	0.012382
528	1049208004													-0.219152	-0.009103	-1.041467	0.180880	0.778924	-0.600466	-0.134234	-0.585272	-0.799649	-0.974302	0.225243	-0.001305
529	1049224671													-0.961124	-0.370045	0.029499	0.183924	0.779057	-0.599368	-0.122172	-0.586923	-0.800372	-0.975318	0.220433	-0.012771
530	1049241338													-0.659188	-1.018364	1.154952	0.187091	0.781295	-0.595462	-0.109957	-0.585700	-0.803035	-0.976169	0.215716	-0.023670
531	1049258005													0.070651	-1.922329	1.970180	0.191851	0.783024	-0.591665	-0.098983	-0.584351	-0.805441	-0.976420	0.213089	-0.034602
532	1049274672													1.302315	-2.786829	1.876944	0.199941	0.780370	-0.592492	-0.091295	-0.587234	-0.804252	-0.975545	0.214894	-0.046169
533	1049291339													2.356180	-2.663922	0.789560	0.209723	0.769030	-0.603828	-0.090144	-0.599725	-0.795113	-0.973597	0.221185	-0.056453
534	1049308006													2.592303	-1.923874	0.058287	0.216774	0.749511	-0.625494	-0.095537	-0.621366	-0.777674	-0.971536	0.228337	-0.063090
535	1049324673													1.705486	-1.735046	-0.115415	0.218432	0.727017	-0.650948	-0.105266	-0.645610	-0.756377	-0.970158	0.233740	-0.064492
536	1049341340													0.758739	-1.992043	0.267229	0.215537	0.705149	-0.675507	-0.116818	-0.668179	-0.734773	-0.969483	0.237282	-0.061643
537	1049358007													0.534641	-2.086002	0.359282	0.209798	0.686338	-0.696365	-0.128367	-0.686716	-0.715502	-0.969282	0.239501	-0.055969
538	1049374674													1.090143	-2.345906	0.370198	0.205420	0.671087	-0.712352	-0.137374	-0.700896	-0.699909	-0.968984	0.241634	-0.051788
539	1049391341													1.462464	-2.076871	2.209602	0.207395	0.664710	-0.717738	-0.143911	-0.704977	-0.694476	-0.967614	0.247322	-0.050550
540	1049408008													4.862226	-0.825157	5.449087	0.187269	0.676387	-0.712342	-0.152636	-0.696327	-0.701307	-0.970378	0.240062	-0.027159
541	1049424675													9.539831	-0.775455	5.173909	0.163599	0.696697	-0.698462	-0.160482	-0.679776	-0.715647	-0.973386	0.229170	0.000596
542	1049441342													5.931789	-1.100317	3.731683	0.162407	0.716487	-0.678433	-0.162938	-0.658648	-0.734598	-0.973178	0.229846	0.009774
543	1049458009													0.053058	-0.524300	2.271870	0.163699	0.731143	-0.662293	-0.162928	-0.642093	-0.749114	-0.972963	0.230535	0.014014
544	1049474676													-0.434524	0.535574	0.108419	0.169619	0.749276	-0.640168	-0.152486	-0.621804	-0.768185	-0.973641	0.227916	0.008785
545	1049491343													-0.681178	0.915013	-3.889415	0.172759	0.775745	-0.606938	-0.127415	-0.593424	-0.794741	-0.976688	0.214631	-0.003678
546	1049508010													-0.694625	3.757233	-6.008475	0.166824	0.805558	-0.568547	-0.092197	-0.561357	-0.822422	-0.981667	0.189618	-0.019377
547	1049524677													-1.373415	5.249540	-5.415097	0.149326	0.838538	-0.523981	-0.054109	-0.522199	-0.851106	-0.987306	0.155444	-0.032606
548	1049541344													-3.260376	5.431320	-2.493905	0.120742	0.868881	-0.480069	-0.019379	-0.481452	-0.876258	-0.992495	0.115104	-0.041293
549	1049558011													-4.283786	5.534208	-0.331003	0.093837	0.892749	-0.440673	0.004587	-0.443009	-0.896505	-0.995577	0.082104	-0.045665
550	1049574678													-5.509068	4.006896	0.502731	0.068223	0.911618	-0.405338	0.017094	-0.407293	-0.913138	-0.997524	0.055368	-0.043370
551	1049591345													-6.064827	2.826537	0.865159	0.046158	0.921367	-0.385944	0.022643	-0.387221	-0.921709	-0.998677	0.033805	-0.038736
552	1049608012													-4.962130	1.291581	-0.090712	0.028755	0.925774	-0.376983	0.028763	-0.377749	-0.925461	-0.999173	0.015769	-0.037491
553	1049624679													-2.804028	1.052729	-0.245474	0.008097	0.925725	-0.378110	0.037955	-0.378135	-0.924972	-0.999247	-0.006862	-0.038198
554	1049641346													-0.858212	0.564813	-0.131981	-0.013244	0.922979	-0.384622	0.048370	-0.383614	-0.922226	-0.998742	-0.030818	-0.039564
555	1049658013													-0.143681	-0.603689	-0.421617	-0.032684	0.919773	-0.391087	0.059962	-0.388786	-0.919375	-0.997665	-0.053499	-0.042444
556	1049674680													0.125868	-1.422199	-1.035833	-0.052124	0.918037	-0.393055	0.073386	-0.389004	-0.918308	-0.995941	-0.076711	-0.047094
557	1049691347													0.448068	-1.783732	-1.303721	-0.077006	0.918244	-0.388456	0.087375	-0.381899	-0.920064	-0.993195	-0.104792	-0.050823
558	1049708014													1.370528	-2.083059	-1.054249	-0.104513	0.922039	-0.372722	0.099336	-0.363222	-0.926392	-0.989550	-0.133845	-0.053630
559	1049724681													0.799234	-1.847142	-0.335175	-0.137750	0.926200	-0.350968	0.109277	-0.337971	-0.934791	-0.984420	-0.167120	-0.054657
560	1049741348													1.352312	-0.840086	0.499476	-0.162601	0.928986	-0.332485	0.117199	-0.316400	-0.941358	-0.979707	-0.192033	-0.057429
561	1049758015													1.062309	-0.173384	0.476736	-0.181138	0.931759	-0.314665	0.122886	-0.296006	-0.947248	-0.975750	-0.210250	-0.060882
562	1049774682													0.366671	0.114333	0.389610	-0.194563	0.935072	-0.296285	0.127633	-0.275356	-0.952832	-0.972551	-0.223201	-0.065772
563	1049791349													-0.689300	0.110468	0.101582	-0.208059	0.938413	-0.275850	0.131898	-0.252528	-0.958558	-0.969182	-0.235821	-0.071234
564	1049808016													-0.891743	-0.137130	-0.141396	-0.223469	0.940675	-0.255327	0.136500	-0.229168	-0.963769	-0.965106	-0.250225	-0.077190
565	1049824683													-0.733510	-0.114786	-0.685899	-0.240477	0.941527	-0.236004	0.140996	-0.206677	-0.968197	-0.960360	-0.266105	-0.083051
566	1049841350													-0.639879	-0.302569	-0.885773	-0.259267	0.941247	-0.216412	0.144031	-0.183888	-0.972338	-0.955006	-0.283265	-0.087893
567	1049858017													-0.472167	-0.567704	-1.074617	-0.278901	0.939680	-0.198031	0.146135	-0.162284	-0.975863	-0.949136	-0.301108	-0.092059
568	1049874684													-0.329533	-0.733513	-0.980626	-0.300213	0.936497	-0.181234	0.147377	-0.142178	-0.978808	-0.942418	-0.320560	-0.095335
569	1049891351													-0.417388	-0.981418	-0.905018	-0.324114	0.931502	-0.165090	0.147615	-0.122574	-0.981420	-0.934430	-0.342462	-0.097776
570	1049908018													-0.447710	-1.195399	0.119854	-0.347948	0.925065	-0.152271	0.149001	-0.105790	-0.983162	-0.925598	-0.364778	-0.101026
571	1049924685													-0.644615	-1.762427	0.616293	-0.368683	0.918485	-0.143028	0.152349	-0.092081	-0.984028	-0.916985	-0.384585	-0.105982
572	1049941352													-0.725490	-2.497431	0.926669	-0.385317	0.912546	-0.137080	0.156842	-0.081624	-0.984245	-0.909357	-0.400747	-0.111674
573	1049958019													-0.963426	-3.005309	0.382848	-0.397615	0.908387	-0.129365	0.159361	-0.070478	-0.984701	-0.903607	-0.412148	-0.116738
574	1049974686													-0.648711	-3.324870	-0.153330	-0.407045	0.905540	-0.119628	0.159243	-0.058611	-0.985498	-0.899420	-0.420192	-0.120344
575	1049991353													-0.237344	-3.160835	0.426863	-0.414349	0.903390	-0.110456	0.156452	-0.048857	-0.986477	-0.896570	-0.426027	-0.121093
576	1050008020													0.180107	-2.885116	0.235070	-0.419889	0.902165	-0.098956	0.150879	-0.038128	-0.987817	-0.894946	-0.429703	-0.120108
577	1050024687													0.296434	-3.091836	0.219773	-0.424930	0.901192	-0.085362	0.143948	-0.025829	-0.989248	-0.893708	-0.432649	-0.118749
578	1050041354													0.148736	-3.601751	0.366832	-0.429840	0.900017	-0.072160	0.137132	-0.013918	-0.990455	-0.892431	-0.435632	-0.117439
579	1050058021													-0.377808	-5.107754	1.626513	-0.435528	0.898059	-0.061688	0.129972	-0.005075	-0.991505	-0.890743	-0.439845	-0.114512
580	1050074688													-0.598711	-6.298247	2.780825	-0.437393	0.897580	-0.055106	0.123534	-0.000725	-0.992340	-0.890745	-0.440850	-0.110565
581	1050091355													-0.483940	-5.451285	2.678389	-0.429212	0.901631	-0.053285	0.120779	-0.001170	-0.992679	-0.895092	-0.432505	-0.108396
582	1050108022													0.313136	-4.271144	2.229683	-0.412090	0.909514	-0.054458	0.118211	-0.005895	-0.992971	-0.903442	-0.415631	-0.105086
583	1050124689													1.054324	-3.877390	2.606412	-0.389071	0.919274	-0.059664	0.111362	-0.017357	-0.993628	-0.914452	-0.393236	-0.095619
584	1050141356													2.071708	-2.932923	0.880554	-0.357815	0.931373	-0.067171	0.101394	-0.032756	-0.994307	-0.928271	-0.362589	-0.082715
585	1050158023													2.615932	-1.914726	-0.637133	-0.318639	0.944876	-0.075360	0.089583	-0.049129	-0.994767	-0.943633	-0.323723	-0.068991
586	1050174690													1.622792	-1.191558	-1.720767	-0.276550	0.957072	-0.086789	0.074950	-0.068556	-0.994828	-0.958072	-0.281625	-0.052774
587	1050191357													-0.412905	-1.416603	1.041403	-0.235962	0.966357	-0.102350	0.052445	-0.092507	-0.994330	-0.970346	-0.239992	-0.028852
588	1050208024													-0.997873	-1.218605	4.947518	-0.188073	0.975003	-0.118315	0.018538	-0.116919	-0.992968	-0.981980	-0.188943	0.003914
589	1050224691													-0.853796	-0.255752	7.587538	-0.129297	0.982761	-0.132151	-0.017989	-0.135572	-0.990604	-0.991443	-0.125705	0.035208
590	1050241358													-1.061732	3.183610	6.440594	-0.068353	0.986457	-0.149100	-0.042656	-0.152203	-0.987428	-0.996749	-0.061134	0.052482
591	1050258025													-2.532797	4.906779	2.229327	-0.024210	0.986070	-0.164561	-0.055185	-0.165677	-0.984635	-0.998183	-0.014757	0.058427
592	1050274692													-3.603715	4.624305	0.227945	0.009853	0.982817	-0.184318	-0.063365	-0.183343	-0.981005	-0.997942	0.021345	0.060469
593	1050291359													-2.347443	3.016699	-0.772780	0.036888	0.977248	-0.208868	-0.071758	-0.205880	-0.975943	-0.996740	0.050989	0.062531
594	1050308026													-2.124080	3.278016	-1.133315	0.060757	0.969873	-0.235914	-0.082085	-0.230695	-0.969558	-0.994772	0.078272	0.065596
595	1050324693													-1.701293	3.051384	-1.269769	0.086149	0.961312	-0.261645	-0.095167	-0.253480	-0.962648	-0.991727	0.107831	0.069648
596	1050341360													-1.089559	2.983495	-1.104162	0.111270	0.952030	-0.285056	-0.109391	-0.273361	-0.955671	-0.987751	0.137521	0.073727
597	1050358027													-1.170076	2.915786	-1.697007	0.138026	0.942346	-0.304848	-0.124196	-0.288897	-0.949270	-0.982611	0.168885	0.077160
598	1050374694													-1.728172	3.362718	-2.542702	0.164661	0.929844	-0.329053	-0.139126	-0.308377	-0.941035	-0.976489	0.200732	0.078588
599	1050391361													-1.288411	3.639396	-4.005312	0.189881	0.913225	-0.360507	-0.153339	-0.335097	-0.929622	-0.969759	0.231798	0.076405
600	1050408028													-0.683701	2.584163	-5.667772	0.206225	0.896493	-0.392138	-0.166847	-0.362666	-0.916862	-0.964175	0.254507	0.074786
601	1050424695													0.256844	1.728645	-5.962682	0.211589	0.882369	-0.420303	-0.178608	-0.387889	-0.904235	-0.960900	0.266396	0.075525
602	1050441362													1.030155	1.002562	-5.704918	0.208077	0.872655	-0.441788	-0.187676	-0.407661	-0.893639	-0.959938	0.268859	0.078951
603	1050458029													1.149542	0.599723	-4.859040	0.198412	0.868399	-0.454439	-0.192269	-0.420163	-0.886846	-0.961075	0.263336	0.083601
604	1050474696													0.915022	0.398996	-3.858992	0.186957	0.868287	-0.459483	-0.191721	-0.426486	-0.883942	-0.963478	0.253351	0.086735
605	1050491363													0.355494	0.422874	-2.699531	0.177702	0.870462	-0.459041	-0.185273	-0.428530	-0.884328	-0.966486	0.242195	0.085123
606	1050508030													-0.156039	-0.025026	-1.545097	0.173281	0.874186	-0.453622	-0.172745	-0.426472	-0.887852	-0.969605	0.232208	0.077112
607	1050524697													-0.764620	-1.218772	0.360214	0.174232	0.878913	-0.444021	-0.154905	-0.420839	-0.893811	-0.972444	0.224512	0.062825
608	1050541364													-1.127092	-2.873736	2.377618	0.183321	0.883672	-0.430718	-0.132870	-0.411849	-0.901513	-0.974032	0.222495	0.041913
609	1050558031													-0.470811	-4.106710	3.925241	0.198432	0.888286	-0.414212	-0.109847	-0.399798	-0.909997	-0.973940	0.226073	0.018243
610	1050574698													2.301626	-3.564259	4.155099	0.211166	0.889275	-0.405709	-0.093328	-0.394828	-0.914002	-0.972984	0.230871	-0.000380
611	1050591365													4.827015	-1.573209	2.187323	0.218061	0.884312	-0.412847	-0.089520	-0.403119	-0.910759	-0.971821	0.235559	-0.008741
612	1050608032													4.725496	-0.875280	0.252584	0.219709	0.875104	-0.431186	-0.096439	-0.420338	-0.902228	-0.970787	0.239810	-0.007958
613	1050624699													2.836002	-1.849399	-0.805697	0.220070	0.861766	-0.457086	-0.109513	-0.443786	-0.889416	-0.969317	0.245791	-0.003290
614	1050641366													1.108100	-1.423125	-1.112556	0.222443	0.846572	-0.483565	-0.124523	-0.467260	-0.875307	-0.966961	0.254921	0.001479
615	1050658033													0.362880	-0.862235	-0.898171	0.224577	0.835629	-0.501288	-0.138095	-0.481945	-0.865251	-0.964622	0.263541	0.007162
616	1050674700													0.803122	-0.751285	1.718466	0.231865	0.829180	-0.508624	-0.149144	-0.486388	-0.860920	-0.961246	0.275476	0.010891
617	1050691367													2.102713	1.447310	5.590877	0.226867	0.830546	-0.508650	-0.163966	-0.482242	-0.860557	-0.960024	0.278633	0.026777
618	1050708034													5.746777	2.723822	7.008741	0.201917	0.838955	-0.505354	-0.180300	-0.475323	-0.861139	-0.962664	0.264994	0.055288
619	1050724701													5.876515	0.092935	4.395812	0.191825	0.842569	-0.503270	-0.192249	-0.470599	-0.861149	-0.962415	0.261943	0.071710
620	1050741368													0.961684	-0.803742	1.910068	0.204296	0.842100	-0.499131	-0.197104	-0.464056	-0.863598	-0.958861	0.274810	0.071176
621	1050758035													-0.239504	0.147337	-0.892819	0.208509	0.847877	-0.487471	-0.195204	-0.452319	-0.870232	-0.958342	0.276607	0.071197
622	1050774702													-0.859674	-0.274656	-1.908505	0.208882	0.860964	-0.463799	-0.182526	-0.431604	-0.883404	-0.960756	0.269183	0.066994
623	1050791369													-0.327081	1.101978	-4.039668	0.204324	0.880629	-0.427486	-0.158788	-0.401100	-0.902167	-0.965939	0.252214	0.057879
624	1050808036													0.200868	3.565332	-4.802436	0.190730	0.904479	-0.381497	-0.127313	-0.362557	-0.923225	-0.973352	0.224656	0.046001
625	1050824703													-0.836358	4.178081	-2.665573	0.166932	0.928928	-0.330493	-0.093163	-0.318836	-0.943220	-0.981557	0.188243	0.033318
626	1050841370													-2.163800	3.798073	-0.925913	0.143548	0.949124	-0.280283	-0.060113	-0.274330	-0.959755	-0.987816	0.154619	0.017675
627	1050858037													-3.740752	3.028448	-0.045010	0.120132	0.964537	-0.235026	-0.030714	-0.233016	-0.971988	-0.992283	0.123985	0.001633
628	1050874704													-6.111025	2.440075	0.774892	0.097585	0.975452	-0.197412	-0.008360	-0.197548	-0.980258	-0.995192	0.097309	-0.011123
629	1050891371													-7.456023	1.679329	-0.000189	0.081618	0.981534	-0.173002	0.006257	-0.174082	-0.984711	-0.996644	0.079287	-0.020349
630	1050908038													-5.445326	1.353135	-1.928929	0.065839	0.984870	-0.160299	0.014825	-0.161595	-0.986746	-0.997720	0.062590	-0.025240
631	1050924705													-2.740330	0.750285	-1.031748	0.043646	0.987912	-0.148747	0.021321	-0.149776	-0.988490	-0.998820	0.039973	-0.027600
632	1050941372													-1.523584	0.210308	-0.453842	0.025109	0.988221	-0.150962	0.025308	-0.151590	-0.988119	-0.999364	0.020990	-0.028816
633	1050958039													-0.336228	0.092978	0.008000	0.008688	0.987254	-0.158916	0.031244	-0.159112	-0.986766	-0.999474	0.003608	-0.032228
634	1050974706													-0.956533	-0.084052	0.248827	-0.007845	0.986145	-0.165697	0.039597	-0.165266	-0.985454	-0.999185	-0.014292	-0.037752
635	1050991373													-1.599588	-0.581274	0.264129	-0.027081	0.985475	-0.167649	0.049891	-0.166169	-0.984834	-0.998387	-0.035034	-0.044667
636	1051008040													-0.878525	-0.803607	-0.238695	-0.049193	0.984165	-0.170293	0.061228	-0.167208	-0.984019	-0.996911	-0.058833	-0.052033
637	1051024707													0.379834	-1.609088	-0.443831	-0.073507	0.983324	-0.166342	0.072958	-0.161044	-0.984247	-0.994622	-0.084485	-0.059904
638	1051041374													0.925388	-1.533054	-0.245467	-0.096250	0.982404	-0.160055	0.084049	-0.152206	-0.984769	-0.991802	-0.108236	-0.067921
639	1051058041													1.660295	-0.789119	-0.436667	-0.114824	0.980801	-0.157622	0.094291	-0.147194	-0.984603	-0.988901	-0.127919	-0.075579
640	1051074708													1.940899	-0.452826	-0.556705	-0.133416	0.979449	-0.151259	0.104149	-0.137922	-0.984952	-0.985573	-0.147162	-0.083608
641	1051091375													1.481420	0.191688	-1.171040	-0.152035	0.978331	-0.140550	0.111985	-0.124236	-0.985913	-0.982011	-0.165632	-0.090670
642	1051108042													0.514532	0.479961	-1.172038	-0.173790	0.976656	-0.126257	0.118442	-0.106548	-0.987228	-0.977634	-0.186525	-0.097160
643	1051124709													-0.388602	0.896803	-0.111094	-0.199403	0.973536	-0.111655	0.125603	-0.087611	-0.988205	-0.971835	-0.211075	-0.104809
644	1051141376													-0.764370	0.424610	0.343570	-0.222222	0.970373	-0.094835	0.130782	-0.066722	-0.989163	-0.966185	-0.232217	-0.112080
645	1051158043													-0.634555	-0.690711	0.046787	-0.244899	0.966403	-0.078036	0.134711	-0.045790	-0.989826	-0.960145	-0.252920	-0.118971
646	1051174710													-0.679983	-1.689829	-0.034152	-0.264519	0.962290	-0.063459	0.137221	-0.027577	-0.990157	-0.954568	-0.270623	-0.124752
647	1051191377													-0.653732	-2.137631	-0.359260	-0.281011	0.958168	-0.054277	0.139485	-0.015178	-0.990108	-0.949514	-0.285802	-0.129385
648	1051208044													-0.339601	-2.137057	-0.615646	-0.296875	0.953703	-0.048114	0.141020	-0.006047	-0.989988	-0.944446	-0.300688	-0.132696
