// Start Time: Unknown
// Update Rate: 100.0Hz
//Filter Profile: human (46.1)
// Option Flags: AHS Disabled ICC Disabled
// Firmware Version: 4.0.2
PacketCounter	SampleTimeFine	Year	Month	Day	Second	UTC_Nano	UTC_Year	UTC_Month	UTC_Day	UTC_Hour	UTC_Minute	UTC_Second	UTC_Valid	Acc_X	Acc_Y	Acc_Z	Mat[1][1]	Mat[1][2]	Mat[1][3]	Mat[2][1]	Mat[2][2]	Mat[2][3]	Mat[3][1]	Mat[3][2]	Mat[3][3]
1	1040441162													0.052248	1.689432	1.528748	-0.356297	0.003591	-0.934366	-0.419792	-0.894001	0.156642	-0.834762	0.448050	0.320037
2	1040457829													-0.745963	2.106796	2.204340	-0.350071	0.016066	-0.936585	-0.446919	-0.881580	0.151924	-0.823234	0.471762	0.315796
3	1040474496													-1.345185	2.885623	2.266811	-0.343592	0.028522	-0.938686	-0.475459	-0.867253	0.147683	-0.809866	0.497049	0.311543
4	1040491163													-1.465149	3.632062	2.273336	-0.337329	0.040670	-0.940508	-0.505515	-0.850627	0.144529	-0.794143	0.524195	0.307500
5	1040507830													-1.785727	5.270707	3.617251	-0.330298	0.050237	-0.942539	-0.536995	-0.831225	0.143878	-0.776234	0.553662	0.301528
6	1040524497													-1.215805	6.790985	2.458421	-0.324006	0.058748	-0.944229	-0.569588	-0.809019	0.145115	-0.755374	0.584840	0.295589
7	1040541164													-1.668679	7.109770	2.671553	-0.317494	0.070051	-0.945669	-0.603902	-0.783816	0.144689	-0.731095	0.617030	0.291161
8	1040557831													-1.999753	9.175089	1.848205	-0.308040	0.085197	-0.947551	-0.640484	-0.755042	0.140328	-0.703485	0.650118	0.287151
9	1040574498													-1.489036	11.663764	1.692370	-0.295423	0.101852	-0.949922	-0.677450	-0.723423	0.133119	-0.673637	0.682851	0.282715
10	1040591165													-1.088327	13.060329	-0.350633	-0.280814	0.120801	-0.952130	-0.712382	-0.691030	0.122430	-0.643161	0.712660	0.280108
11	1040607832													-0.533922	10.182672	-2.547858	-0.272035	0.136074	-0.952618	-0.742232	-0.659722	0.117720	-0.612444	0.739088	0.280466
12	1040624499													0.902881	1.386570	3.011516	-0.274916	0.145712	-0.950363	-0.769593	-0.625845	0.126668	-0.576322	0.766216	0.284194
13	1040641166													6.096430	5.516536	3.263136	-0.280008	0.158311	-0.946854	-0.800137	-0.583474	0.139065	-0.530449	0.796553	0.290048
14	1040657833													0.453014	10.993629	-0.684727	-0.286986	0.162089	-0.944122	-0.821768	-0.548141	0.155688	-0.492277	0.820529	0.290508
15	1040674500													-0.474597	7.451797	-1.554265	-0.293150	0.157534	-0.942998	-0.835334	-0.521985	0.172480	-0.465060	0.838281	0.284613
16	1040691167													0.622852	7.727151	-6.272797	-0.306213	0.149751	-0.940111	-0.839991	-0.507186	0.192812	-0.447938	0.848727	0.281096
17	1040707834													2.440432	7.607519	-7.854961	-0.331838	0.135811	-0.933509	-0.834682	-0.503353	0.223478	-0.439533	0.853341	0.280391
18	1040724501													3.095213	5.028574	-7.500346	-0.361395	0.117731	-0.924950	-0.823239	-0.506069	0.257240	-0.437804	0.854420	0.279811
19	1040741168													3.655836	2.830086	-6.251491	-0.387416	0.098177	-0.916663	-0.807613	-0.515664	0.286098	-0.444602	0.851147	0.279066
20	1040757835													3.142899	1.910377	-5.080342	-0.407234	0.080120	-0.909803	-0.788355	-0.533801	0.305865	-0.461147	0.841806	0.280545
21	1040774502													1.410844	1.140001	-3.749028	-0.420947	0.064255	-0.904807	-0.765761	-0.559856	0.316499	-0.486225	0.826095	0.284874
22	1040791169													-0.589563	0.762346	-2.989375	-0.426396	0.053005	-0.902982	-0.741542	-0.592146	0.315404	-0.517979	0.804086	0.291794
23	1040807836													-1.380189	0.769804	-3.580185	-0.423284	0.047055	-0.904774	-0.715818	-0.629535	0.302143	-0.555369	0.775546	0.300155
24	1040824503													-1.882006	0.982164	-4.264349	-0.415749	0.043470	-0.908440	-0.685727	-0.671132	0.281710	-0.597437	0.740062	0.308831
25	1040841170													-2.690916	0.671381	-3.586632	-0.403698	0.041738	-0.913940	-0.651144	-0.714843	0.254973	-0.642681	0.698038	0.315758
26	1040857837													-2.767238	0.826066	-2.967507	-0.389188	0.040499	-0.920268	-0.611457	-0.758553	0.225207	-0.688951	0.650352	0.319983
27	1040874504													-2.309419	1.109891	-2.381059	-0.374800	0.038649	-0.926300	-0.565790	-0.801036	0.195508	-0.734443	0.597368	0.322095
28	1040891171													-1.854670	1.457173	-1.505314	-0.362070	0.034740	-0.931503	-0.513622	-0.841356	0.168263	-0.777880	0.539364	0.322473
29	1040907838													-2.015361	1.524571	-0.316537	-0.350653	0.028050	-0.936085	-0.454942	-0.878787	0.144087	-0.818578	0.476389	0.320911
30	1040924505													-2.617071	1.137781	1.002150	-0.337884	0.019130	-0.940993	-0.391219	-0.912184	0.121931	-0.856027	0.409333	0.315696
31	1040941172													-3.150537	0.872701	2.167288	-0.322559	0.008155	-0.946514	-0.323574	-0.940671	0.102165	-0.889526	0.339221	0.306061
32	1040957839													-3.308984	0.141581	3.775577	-0.304750	-0.005113	-0.952419	-0.252561	-0.963753	0.085987	-0.918336	0.266748	0.292412
33	1040974506													-2.740795	-1.199414	5.097750	-0.283987	-0.021560	-0.958586	-0.178940	-0.980991	0.075076	-0.941983	0.192850	0.274731
34	1040991173													-1.628612	-2.673067	6.040917	-0.260247	-0.037336	-0.964820	-0.104520	-0.992291	0.066592	-0.959868	0.118173	0.254339
35	1041007840													-0.284147	-3.919697	6.468082	-0.236314	-0.050697	-0.970353	-0.030114	-0.997776	0.059463	-0.971210	0.043273	0.234262
36	1041024507													0.954605	-5.515787	6.296438	-0.214580	-0.060393	-0.974838	0.042603	-0.997715	0.052433	-0.975777	-0.030280	0.216662
37	1041041174													1.795150	-7.764552	5.773254	-0.197270	-0.065231	-0.978177	0.110543	-0.992900	0.043920	-0.974097	-0.099466	0.203080
38	1041057841													2.218958	-9.271931	2.603639	-0.185033	-0.064780	-0.980595	0.170400	-0.984825	0.032906	-0.967846	-0.161005	0.193264
39	1041074508													2.058215	-10.847531	-0.189279	-0.176458	-0.065056	-0.982156	0.218309	-0.975549	0.025396	-0.959794	-0.209932	0.186345
40	1041091175													2.514754	-12.268990	-2.214622	-0.169553	-0.067281	-0.983222	0.251660	-0.967547	0.022811	-0.952848	-0.243570	0.180982
41	1041107842													2.916730	-12.818378	-3.850467	-0.164959	-0.070824	-0.983754	0.270607	-0.962393	0.023910	-0.948452	-0.262267	0.177921
42	1041124509													3.259180	-13.157297	-5.244641	-0.162340	-0.077743	-0.983668	0.273399	-0.961405	0.030863	-0.948103	-0.263924	0.177329
43	1041141176													3.096073	-11.969364	-5.113607	-0.160901	-0.089556	-0.982899	0.259584	-0.964653	0.045400	-0.952222	-0.247840	0.178461
44	1041157843													2.727667	-11.380482	-3.500641	-0.161181	-0.107113	-0.981095	0.231321	-0.970501	0.067954	-0.959433	-0.215995	0.181203
45	1041174510													3.646069	-7.580252	0.346600	-0.163945	-0.125091	-0.978506	0.193290	-0.976773	0.092484	-0.967348	-0.173973	0.184315
46	1041191177													-5.977924	30.476854	17.956207	-0.174692	-0.105943	-0.978907	0.174133	-0.981848	0.075186	-0.969103	-0.157325	0.189969
47	1041207844													-2.248188	-9.739923	1.000398	-0.177726	-0.150136	-0.972560	0.164613	-0.978904	0.121034	-0.970214	-0.138585	0.198691
48	1041224511													1.402012	-17.241919	-4.118267	-0.187066	-0.157550	-0.969631	0.123742	-0.982972	0.135845	-0.974523	-0.094572	0.203376
49	1041241178													4.918105	-3.854787	1.098277	-0.199293	-0.155153	-0.967579	0.076829	-0.986821	0.142414	-0.976923	-0.045956	0.208587
50	1041257845													0.959861	3.540534	-0.651317	-0.212760	-0.158023	-0.964242	0.056057	-0.987184	0.149414	-0.975495	-0.022263	0.218891
51	1041274512													-0.903996	-12.569942	2.135767	-0.230702	-0.158354	-0.960052	0.026680	-0.987327	0.156441	-0.972659	0.010478	0.232004
52	1041291179													-1.805407	-1.353688	0.524086	-0.238047	-0.146052	-0.960210	-0.005739	-0.988400	0.151763	-0.971237	0.041637	0.234448
53	1041307846													0.017146	-4.402313	0.625068	-0.250115	-0.143408	-0.957537	-0.027018	-0.987551	0.154960	-0.967839	0.064629	0.243127
54	1041324513													-0.013611	-2.351172	0.401632	-0.259284	-0.132842	-0.956621	-0.048879	-0.987421	0.150368	-0.964563	0.085747	0.249530
55	1041341180													0.077960	-0.045635	-0.429763	-0.268309	-0.126249	-0.955024	-0.066599	-0.986572	0.149130	-0.961028	0.103617	0.256298
56	1041357847													0.957230	0.098802	0.456491	-0.276166	-0.123266	-0.953173	-0.083183	-0.984954	0.151477	-0.957503	0.121121	0.261757
57	1041374514													1.127835	0.020703	0.761774	-0.282729	-0.123796	-0.951178	-0.097503	-0.982791	0.156893	-0.954231	0.137101	0.265793
58	1041391181													0.325856	-0.905182	0.886891	-0.287624	-0.124788	-0.949579	-0.110467	-0.980536	0.162317	-0.951351	0.151584	0.268241
59	1041407848													0.417401	-1.025501	0.354620	-0.290709	-0.123944	-0.948750	-0.121843	-0.978706	0.165191	-0.949022	0.163621	0.269417
60	1041424515													-0.213801	-0.772153	-0.052581	-0.293634	-0.120846	-0.948249	-0.132196	-0.977312	0.165485	-0.946733	0.173946	0.270997
61	1041441182													-0.126099	-0.555664	0.433484	-0.296559	-0.114483	-0.948128	-0.142104	-0.976447	0.162350	-0.944383	0.182879	0.273306
62	1041457849													0.010430	0.658817	0.482098	-0.299559	-0.108454	-0.947893	-0.151400	-0.975525	0.159462	-0.941988	0.191280	0.275808
63	1041474516													0.307139	0.829920	0.342859	-0.302549	-0.104485	-0.947390	-0.160238	-0.974250	0.158619	-0.939568	0.199798	0.278016
64	1041491183													0.499606	0.511383	0.139603	-0.305153	-0.102166	-0.946807	-0.169024	-0.972632	0.159429	-0.937183	0.208683	0.279533
65	1041507850													0.391633	0.032491	0.362270	-0.307498	-0.100216	-0.946257	-0.177705	-0.970895	0.160573	-0.934808	0.217530	0.280739
66	1041524517													0.106720	-0.382071	0.613835	-0.309263	-0.097105	-0.946006	-0.186085	-0.969363	0.160336	-0.932592	0.225624	0.281718
67	1041541184													0.225251	-0.331138	0.524111	-0.310305	-0.091815	-0.946193	-0.194312	-0.968185	0.157674	-0.930566	0.232784	0.282591
68	1041557851													0.143423	-0.122453	0.514808	-0.311037	-0.085464	-0.946547	-0.202178	-0.967202	0.153765	-0.928644	0.239198	0.283557
69	1041574518													0.014063	-0.059993	0.244329	-0.312153	-0.078992	-0.946742	-0.209327	-0.966328	0.149644	-0.926684	0.244891	0.285107
70	1041591185													-0.176023	0.139188	0.151011	-0.313361	-0.072551	-0.946858	-0.216068	-0.965478	0.145485	-0.924727	0.250175	0.286868
71	1041607852													-0.177496	0.261978	0.253584	-0.314780	-0.066339	-0.946844	-0.222636	-0.964564	0.141596	-0.922685	0.255373	0.288856
72	1041624519													-0.144069	0.431765	0.440566	-0.316194	-0.060119	-0.946788	-0.229544	-0.963489	0.137839	-0.920506	0.260913	0.290849
73	1041641186													-0.012033	0.599338	0.210862	-0.317791	-0.054052	-0.946619	-0.236933	-0.962174	0.134481	-0.918081	0.267022	0.292963
74	1041657853													0.056061	0.845347	0.114347	-0.319474	-0.048372	-0.946360	-0.245203	-0.960461	0.131869	-0.915321	0.274179	0.294981
75	1041674520													0.151341	0.888118	0.077803	-0.321379	-0.043066	-0.945971	-0.254503	-0.958282	0.130090	-0.912110	0.282561	0.297011
76	1041691187													-0.023790	0.959930	0.283186	-0.323330	-0.037592	-0.945539	-0.265286	-0.955541	0.128705	-0.908340	0.292453	0.298982
77	1041707854													0.147816	1.121592	0.510516	-0.325001	-0.031829	-0.945178	-0.277934	-0.952084	0.127630	-0.903951	0.304177	0.300582
78	1041724521													0.363955	1.366012	0.829871	-0.326175	-0.024513	-0.944991	-0.293051	-0.947793	0.125735	-0.898738	0.317942	0.301963
79	1041741188													0.681758	1.535449	0.784153	-0.326895	-0.014875	-0.944943	-0.311050	-0.942473	0.122442	-0.892405	0.333950	0.303463
80	1041757855													0.480940	1.627727	1.006245	-0.326883	-0.002868	-0.945060	-0.331994	-0.935913	0.117672	-0.884832	0.352219	0.304982
81	1041774522													-0.092957	1.868620	1.238494	-0.326097	0.010650	-0.945276	-0.355682	-0.927842	0.112248	-0.875872	0.372821	0.306354
82	1041791189													-0.585885	2.046580	1.384745	-0.324600	0.024220	-0.945541	-0.381895	-0.917922	0.107590	-0.865327	0.396021	0.307207
83	1041807856													-0.443049	2.725826	1.515085	-0.322301	0.036768	-0.945923	-0.410518	-0.905825	0.104665	-0.852993	0.422052	0.307043
84	1041824523													-0.665755	2.755965	2.194160	-0.319279	0.048233	-0.946433	-0.441317	-0.891368	0.103452	-0.838630	0.450707	0.305881
85	1041841190													-1.009834	3.308348	2.912843	-0.314587	0.059331	-0.947372	-0.474367	-0.874309	0.102765	-0.822199	0.481731	0.303191
86	1041857857													-1.994659	4.081145	5.045128	-0.307844	0.069630	-0.948886	-0.509078	-0.854602	0.102447	-0.803786	0.514594	0.298531
87	1041874524													-1.957932	6.424564	4.261039	-0.298008	0.079853	-0.951217	-0.545504	-0.831993	0.101058	-0.783336	0.549009	0.291501
88	1041891191													-2.998882	6.212257	4.580475	-0.287283	0.094316	-0.953191	-0.582984	-0.806807	0.095874	-0.759999	0.583238	0.286766
89	1041907858													-3.993851	8.895113	2.828031	-0.272030	0.113679	-0.955551	-0.622920	-0.777674	0.084818	-0.733464	0.618305	0.282363
90	1041924525													-4.135102	12.843206	1.925263	-0.253972	0.133410	-0.957967	-0.662613	-0.745508	0.071846	-0.704587	0.653008	0.277737
91	1041941192													-3.835049	14.734441	-0.535986	-0.233455	0.152091	-0.960399	-0.699559	-0.712278	0.057252	-0.675364	0.685221	0.272681
92	1041957859													0.253982	14.406298	-6.425915	-0.220332	0.167261	-0.960977	-0.731598	-0.679945	0.049394	-0.645150	0.713932	0.272181
93	1041974526													3.636894	9.352898	-4.139561	-0.232705	0.164013	-0.958618	-0.755972	-0.650610	0.072198	-0.611845	0.741489	0.275390
94	1041991193													4.370365	4.246708	1.627214	-0.259561	0.152323	-0.953638	-0.779539	-0.615931	0.113793	-0.570042	0.772934	0.278614
95	1042007860													3.737834	9.563929	2.871784	-0.274022	0.141106	-0.951315	-0.800803	-0.581247	0.144453	-0.532566	0.801399	0.272273
96	1042024527													1.990589	9.291292	-3.839736	-0.276991	0.133149	-0.951603	-0.810064	-0.565004	0.156736	-0.516790	0.814274	0.264360
97	1042041194													2.449318	6.933363	-4.063085	-0.279154	0.135543	-0.950632	-0.813548	-0.559293	0.159154	-0.510110	0.817814	0.266400
98	1042057861													1.454451	6.537396	-4.446753	-0.277863	0.139958	-0.950370	-0.815046	-0.557963	0.156129	-0.508420	0.817978	0.269110
99	1042074528													1.624098	4.882513	-6.256264	-0.275367	0.139649	-0.951142	-0.811956	-0.563489	0.152339	-0.514685	0.814235	0.268555
100	1042091195													1.803865	3.669708	-7.313794	-0.274951	0.133209	-0.952186	-0.802746	-0.576861	0.151098	-0.529151	0.805908	0.265541
101	1042107862													1.782015	4.039961	-7.323223	-0.278129	0.120647	-0.952937	-0.786580	-0.598012	0.153864	-0.551304	0.792355	0.261223
102	1042124529													1.674083	4.559812	-6.403857	-0.285182	0.101927	-0.953038	-0.762904	-0.626059	0.161331	-0.580214	0.773086	0.256302
103	1042141196													1.781862	4.449725	-5.633686	-0.292569	0.078381	-0.953027	-0.732215	-0.659373	0.170552	-0.615032	0.747719	0.250304
104	1042157863													2.140722	4.245432	-5.401598	-0.296891	0.053286	-0.953423	-0.693928	-0.697930	0.177079	-0.655987	0.714181	0.244186
105	1042174530													2.461315	3.850863	-4.726986	-0.297327	0.029557	-0.954318	-0.647208	-0.741074	0.178691	-0.701939	0.670772	0.239471
106	1042191197													2.172292	3.069947	-2.920253	-0.292636	0.009709	-0.956175	-0.592697	-0.786537	0.173408	-0.750383	0.617467	0.235923
107	1042207864													1.676684	2.022697	-0.744403	-0.284637	-0.006015	-0.958617	-0.531102	-0.831498	0.162915	-0.798068	0.555495	0.233481
108	1042224531													1.792148	1.320845	1.262234	-0.274821	-0.018289	-0.961321	-0.462884	-0.873814	0.148953	-0.842740	0.485916	0.231677
109	1042241198													1.417867	-0.758808	2.282846	-0.262162	-0.021046	-0.964794	-0.390136	-0.912108	0.125908	-0.882647	0.409409	0.230909
110	1042257865													0.734434	-0.934307	3.620392	-0.252250	-0.018875	-0.967478	-0.309732	-0.945635	0.099205	-0.916753	0.324683	0.232690
111	1042274532													-0.349038	-0.793449	5.072580	-0.245676	-0.016973	-0.969203	-0.222654	-0.972126	0.073463	-0.943434	0.233845	0.235049
112	1042291199													-1.144422	-1.767295	5.776751	-0.241562	-0.019290	-0.970194	-0.131990	-0.989857	0.052544	-0.961367	0.140749	0.236566
113	1042307866													-1.488732	-3.632419	6.895317	-0.238819	-0.026330	-0.970707	-0.041044	-0.998465	0.037181	-0.970196	0.048721	0.237371
114	1042324533													-1.973449	-6.486318	7.728689	-0.235417	-0.036604	-0.971205	0.046188	-0.998583	0.026440	-0.970796	-0.038634	0.236774
115	1042341200													-2.752711	-11.476181	8.333746	-0.230160	-0.046044	-0.972063	0.125675	-0.991922	0.017228	-0.965004	-0.118199	0.234087
116	1042357867													-1.742404	-13.475700	5.915616	-0.219362	-0.058085	-0.973913	0.193419	-0.981002	0.014942	-0.956279	-0.185096	0.226429
117	1042374534													2.099613	-13.879223	-1.527232	-0.208333	-0.080464	-0.974742	0.247571	-0.968493	0.027035	-0.946206	-0.235686	0.221690
118	1042391201													4.073679	-17.615267	-6.558465	-0.200925	-0.102732	-0.974205	0.281459	-0.958608	0.043037	-0.938301	-0.265552	0.221524
119	1042407868													3.377395	-18.851880	-7.190860	-0.197962	-0.121344	-0.972670	0.294023	-0.953965	0.059170	-0.935073	-0.274274	0.224527
120	1042424535													1.426933	-17.703747	-6.585596	-0.198929	-0.138431	-0.970188	0.285326	-0.955268	0.077799	-0.937559	-0.261343	0.229529
121	1042441202													-0.145181	-15.718610	-5.022075	-0.200464	-0.157519	-0.966955	0.257428	-0.960777	0.103144	-0.945275	-0.228245	0.233151
122	1042457869													-1.150603	-13.752630	-2.635496	-0.202945	-0.179042	-0.962682	0.215573	-0.967190	0.134435	-0.955166	-0.180245	0.234883
123	1042474536													0.490007	15.508185	12.861498	-0.208948	-0.174064	-0.962311	0.177078	-0.974499	0.137820	-0.961761	-0.141607	0.234442
124	1042491203													-16.514517	26.404743	15.470444	-0.201314	-0.206740	-0.957461	0.176871	-0.969078	0.172060	-0.963426	-0.134709	0.231656
125	1042507870													-2.693154	-18.228827	-3.998231	-0.201810	-0.253529	-0.946042	0.156102	-0.961895	0.224478	-0.966905	-0.102377	0.233696
126	1042524537													5.317873	-22.253462	-5.161865	-0.206823	-0.291675	-0.933890	0.103828	-0.955681	0.275487	-0.972854	-0.039986	0.227941
127	1042541204													7.538694	6.476168	2.791800	-0.215235	-0.296308	-0.930524	0.072476	-0.955076	0.287362	-0.973869	-0.005590	0.227041
128	1042557871													-2.055019	-10.817959	1.377321	-0.233403	-0.317709	-0.919013	0.055100	-0.947919	0.313708	-0.970818	0.022583	0.238753
129	1042574538													-3.993900	-4.537047	1.281159	-0.239536	-0.309637	-0.920189	0.018767	-0.949081	0.314474	-0.970706	0.058059	0.233150
130	1042591205													-0.985415	-4.544174	-0.231456	-0.249641	-0.305403	-0.918917	-0.009698	-0.948126	0.317746	-0.968290	0.088234	0.233729
131	1042607872													0.108192	-4.335602	-0.558867	-0.260103	-0.284491	-0.922720	-0.039030	-0.951732	0.304438	-0.964792	0.115199	0.236445
132	1042624539													-0.460940	-0.933769	-0.341870	-0.270057	-0.258959	-0.927367	-0.065417	-0.955993	0.286002	-0.960619	0.137902	0.241233
133	1042641206													0.525001	0.556106	0.062904	-0.278982	-0.242450	-0.929186	-0.086039	-0.957401	0.275645	-0.956434	0.156847	0.246237
134	1042657873													1.452637	2.581566	0.367470	-0.285592	-0.237803	-0.928379	-0.102848	-0.955525	0.276395	-0.952817	0.174418	0.248433
135	1042674540													0.450999	0.504087	1.270727	-0.290171	-0.243168	-0.925565	-0.116956	-0.950916	0.286495	-0.949801	0.191383	0.247489
136	1042691207													-0.317772	-0.707005	0.828941	-0.292504	-0.251889	-0.922493	-0.129719	-0.945316	0.299251	-0.947425	0.207197	0.243834
137	1042707874													-0.273734	-1.650847	0.007976	-0.294303	-0.257888	-0.920261	-0.141459	-0.940545	0.308811	-0.945185	0.221063	0.240324
138	1042724541													0.106178	-1.256005	-0.359629	-0.295603	-0.259169	-0.919484	-0.152728	-0.937296	0.313290	-0.943023	0.233040	0.237485
139	1042741208													-0.195003	-0.219312	0.196273	-0.296475	-0.259823	-0.919018	-0.163221	-0.934340	0.316810	-0.940990	0.243929	0.234600
140	1042757875													-0.241409	0.021339	0.928439	-0.297260	-0.263473	-0.917725	-0.171915	-0.930695	0.322881	-0.939192	0.253750	0.231364
141	1042774542													-0.083284	-0.466949	0.837082	-0.297822	-0.268570	-0.916064	-0.178875	-0.926913	0.329904	-0.937713	0.262113	0.228014
142	1042791209													-0.305929	-1.309787	0.433507	-0.298203	-0.270780	-0.915289	-0.185417	-0.924217	0.333830	-0.936320	0.269259	0.225397
143	1042807876													-0.397963	-1.384117	0.207370	-0.298530	-0.267645	-0.916104	-0.191969	-0.923417	0.332339	-0.934894	0.275076	0.224288
144	1042824543													-0.334743	-0.471773	0.133155	-0.298947	-0.260652	-0.917982	-0.198110	-0.924063	0.326894	-0.933479	0.279586	0.224608
145	1042841210													-0.130944	0.250895	0.231152	-0.299443	-0.253473	-0.919829	-0.203724	-0.924847	0.321177	-0.932111	0.283565	0.225301
146	1042857877													0.026469	0.728096	0.405107	-0.299658	-0.247705	-0.921329	-0.209044	-0.925192	0.316734	-0.930863	0.287510	0.225459
147	1042874544													0.089572	0.704803	0.302370	-0.300174	-0.244230	-0.922089	-0.214254	-0.924704	0.314670	-0.929511	0.292017	0.225245
148	1042891211													0.017970	0.308353	0.306931	-0.300902	-0.241789	-0.922495	-0.219675	-0.923738	0.313769	-0.928009	0.297063	0.224839
149	1042907878													-0.119195	0.251382	0.347585	-0.301594	-0.237494	-0.923384	-0.226098	-0.923039	0.311253	-0.926240	0.302647	0.224686
150	1042924545													0.098301	0.430105	0.339744	-0.302393	-0.230799	-0.924819	-0.234151	-0.922526	0.306789	-0.923976	0.309318	0.224924
151	1042941212													0.770168	0.850632	-0.128009	-0.303196	-0.222178	-0.926665	-0.244241	-0.921838	0.300934	-0.921096	0.317572	0.225233
152	1042957879													0.899286	1.091465	0.086278	-0.303852	-0.212557	-0.928705	-0.256233	-0.920645	0.294546	-0.917616	0.327464	0.225276
153	1042974546													0.395117	1.200575	0.341918	-0.304170	-0.203315	-0.930668	-0.269961	-0.918512	0.288890	-0.913565	0.339116	0.224497
154	1042991213													0.294021	1.274182	0.326943	-0.304286	-0.195605	-0.932282	-0.285264	-0.915064	0.285099	-0.908864	0.352698	0.222642
155	1043007880													0.390202	1.085444	0.650534	-0.303795	-0.188528	-0.933898	-0.302350	-0.910480	0.282154	-0.903489	0.368081	0.219598
156	1043024547													0.547144	1.384189	0.984864	-0.302816	-0.181252	-0.935655	-0.321430	-0.904805	0.279303	-0.897210	0.385325	0.215730
157	1043041214													-0.210970	1.363051	1.413185	-0.301286	-0.172853	-0.937736	-0.342818	-0.898040	0.275680	-0.889777	0.404531	0.211310
158	1043057881													-0.625410	1.713323	1.576505	-0.299481	-0.164442	-0.939824	-0.366386	-0.889690	0.272421	-0.880950	0.425924	0.206196
159	1043074548													-0.515214	1.970368	2.294869	-0.297043	-0.157122	-0.941848	-0.391481	-0.879620	0.270207	-0.870924	0.448979	0.199775
160	1043091215													-0.396857	2.647416	2.980696	-0.293003	-0.151315	-0.944062	-0.418212	-0.867646	0.268865	-0.859795	0.473597	0.190941
161	1043107882													0.452001	3.297359	2.953644	-0.287189	-0.146096	-0.946667	-0.446978	-0.853662	0.267342	-0.847191	0.499917	0.179861
162	1043124549													1.171557	4.523570	4.823776	-0.278091	-0.141706	-0.950045	-0.478403	-0.837229	0.264914	-0.832944	0.528174	0.165033
163	1043141216													1.359603	5.936691	3.617907	-0.269315	-0.137262	-0.953220	-0.511370	-0.818346	0.262319	-0.816070	0.558094	0.150201
164	1043157883													0.044887	6.404680	3.598829	-0.258459	-0.130182	-0.957210	-0.547509	-0.796622	0.256177	-0.795885	0.590293	0.134618
165	1043174550													0.267798	8.453037	2.851353	-0.246347	-0.121147	-0.961580	-0.586114	-0.771546	0.247361	-0.771870	0.624532	0.119062
166	1043191217													0.291918	10.066943	2.439730	-0.234812	-0.110271	-0.965766	-0.624517	-0.744241	0.236820	-0.744877	0.658746	0.105891
167	1043207884													0.662583	10.039082	0.372649	-0.222077	-0.096253	-0.970267	-0.661801	-0.715902	0.222494	-0.716031	0.691534	0.095285
168	1043224551													2.020681	10.843082	-2.713601	-0.208084	-0.078622	-0.974946	-0.697021	-0.687361	0.204196	-0.686195	0.722048	0.088228
169	1043241218													4.500821	11.330630	-6.222640	-0.204342	-0.066391	-0.976646	-0.727294	-0.657486	0.196865	-0.655201	0.750536	0.086066
170	1043257885													5.434131	5.934781	-2.394512	-0.219908	-0.067860	-0.973158	-0.752884	-0.622547	0.213543	-0.620327	0.779635	0.085812
171	1043274552													3.094189	4.818323	3.043705	-0.231146	-0.068420	-0.970510	-0.779682	-0.583642	0.226843	-0.581951	0.809123	0.081561
172	1043291219													3.598397	10.251549	-0.282961	-0.233947	-0.071249	-0.969635	-0.798617	-0.554719	0.233446	-0.554508	0.828981	0.072875
173	1043307886													3.688434	8.780061	-2.785019	-0.238343	-0.069526	-0.968689	-0.807579	-0.539847	0.237449	-0.539453	0.838887	0.072521
174	1043324553													2.938782	7.372336	-3.731984	-0.245702	-0.065386	-0.967138	-0.812754	-0.529830	0.242302	-0.528262	0.845579	0.077038
175	1043341220													2.909187	6.353342	-4.859417	-0.254161	-0.063359	-0.965084	-0.814331	-0.524330	0.248882	-0.521792	0.849154	0.081669
176	1043357887													3.196737	5.032173	-6.458722	-0.267235	-0.066010	-0.961368	-0.809367	-0.526070	0.261104	-0.522982	0.847876	0.087158
177	1043374554													2.941446	4.295163	-6.656187	-0.283736	-0.073607	-0.956073	-0.797473	-0.535546	0.277899	-0.532476	0.841292	0.093254
178	1043391221													2.617721	4.041166	-6.443732	-0.300248	-0.085306	-0.950039	-0.778467	-0.553650	0.295738	-0.551217	0.828369	0.099824
179	1043407888													2.329434	4.051710	-6.291805	-0.314242	-0.099739	-0.944089	-0.751901	-0.580965	0.311648	-0.579566	0.807795	0.107570
180	1043424555													2.049892	3.807105	-5.721844	-0.326488	-0.116696	-0.937970	-0.717028	-0.615996	0.326220	-0.615854	0.779058	0.117441
181	1043441222													1.909215	3.240783	-4.713721	-0.334900	-0.134275	-0.932637	-0.674299	-0.657205	0.336753	-0.658151	0.741655	0.129556
182	1043457889													1.224914	2.582946	-3.828683	-0.336847	-0.148887	-0.929713	-0.624886	-0.703262	0.339027	-0.704309	0.695165	0.143855
183	1043474556													0.277829	1.822654	-2.452709	-0.332177	-0.157055	-0.930049	-0.569628	-0.752514	0.330524	-0.751786	0.639575	0.160505
184	1043491223													-0.269129	1.159557	-0.514952	-0.323343	-0.158834	-0.932856	-0.507844	-0.802692	0.312699	-0.798463	0.574854	0.178881
185	1043507890													-0.743030	0.782361	1.133645	-0.311272	-0.153917	-0.937774	-0.440170	-0.851212	0.285813	-0.842235	0.501745	0.197209
186	1043524557													-1.512842	0.632051	2.160561	-0.298455	-0.142844	-0.943674	-0.365567	-0.896225	0.251279	-0.881638	0.419972	0.215264
187	1043541224													-2.655926	0.964721	3.446797	-0.289904	-0.134607	-0.947542	-0.282419	-0.933939	0.219082	-0.914437	0.331117	0.232738
188	1043557891													-3.723572	0.355077	5.279183	-0.284722	-0.135416	-0.948997	-0.193462	-0.961485	0.195241	-0.938886	0.239184	0.247558
189	1043574558													-4.163137	-0.988109	6.702414	-0.279789	-0.145138	-0.949028	-0.102226	-0.978384	0.179765	-0.954604	0.147312	0.258904
190	1043591225													-4.469572	-2.855121	7.990545	-0.272832	-0.164355	-0.947919	-0.010948	-0.984705	0.173884	-0.962000	0.057819	0.266859
191	1043607892													-4.204495	-5.794848	8.458078	-0.262527	-0.192468	-0.945534	0.076260	-0.980979	0.178509	-0.961906	-0.025242	0.272211
192	1043624559													-3.656522	-9.704368	7.207077	-0.249513	-0.227539	-0.941259	0.155781	-0.968774	0.192895	-0.955759	-0.098500	0.277168
193	1043641226													-2.813129	-14.560906	2.833682	-0.232974	-0.264323	-0.935872	0.222586	-0.951300	0.213270	-0.946667	-0.158626	0.280463
194	1043657893													-1.816563	-17.733843	-3.817544	-0.216588	-0.297904	-0.929700	0.270048	-0.933429	0.236187	-0.938170	-0.199909	0.282618
195	1043674560													-1.962882	-19.814415	-7.086309	-0.203927	-0.324735	-0.923559	0.295516	-0.919795	0.258160	-0.933319	-0.220280	0.283536
196	1043691227													-1.958019	-20.604156	-8.299399	-0.197372	-0.341900	-0.918776	0.299691	-0.913387	0.275515	-0.933397	-0.220970	0.282742
197	1043707894													-2.315834	-18.052551	-6.449157	-0.196394	-0.351694	-0.915282	0.284007	-0.913850	0.290204	-0.938493	-0.202952	0.279358
198	1043724561													-2.138913	-15.244342	-3.583892	-0.198844	-0.357564	-0.912474	0.252162	-0.918386	0.304930	-0.947035	-0.169458	0.272780
199	1043741228													8.876148	12.465116	13.955992	-0.216143	-0.328440	-0.919462	0.222074	-0.933577	0.281278	-0.950771	-0.143393	0.274724
200	1043757895													-11.328202	9.421328	11.528145	-0.218604	-0.347715	-0.911760	0.219401	-0.927950	0.301285	-0.950829	-0.134179	0.279142
201	1043774562													-4.680628	-24.945168	-3.713068	-0.227958	-0.356630	-0.906008	0.181233	-0.929787	0.320390	-0.956655	-0.091163	0.276586
202	1043791229													1.123643	-3.059312	0.478982	-0.232660	-0.343848	-0.909746	0.129010	-0.938061	0.321557	-0.963964	-0.042553	0.262609
203	1043807896													3.247848	5.803721	-0.453624	-0.241188	-0.347453	-0.906149	0.104113	-0.937588	0.331796	-0.964878	-0.014317	0.262309
204	1043824563													0.584840	-12.179367	-0.680350	-0.259525	-0.362357	-0.895178	0.080242	-0.931824	0.353927	-0.962397	0.020022	0.270908
205	1043841230													-3.878255	-1.933638	1.708885	-0.266123	-0.349901	-0.898191	0.047312	-0.935411	0.350383	-0.962777	0.050749	0.265489
206	1043857897													-1.923433	-5.410576	0.358868	-0.278351	-0.345223	-0.896293	0.023793	-0.935365	0.352883	-0.960185	0.076900	0.268573
207	1043874564													-0.936641	-3.323551	0.562169	-0.289313	-0.329442	-0.898758	0.000309	-0.938943	0.344072	-0.957234	0.099267	0.271751
208	1043891231													0.092704	-0.536535	-0.624078	-0.299292	-0.311957	-0.901725	-0.020448	-0.942730	0.332930	-0.953942	0.118082	0.275773
209	1043907898													1.213046	0.618111	0.487584	-0.308863	-0.301618	-0.902014	-0.039817	-0.943452	0.329108	-0.950273	0.137564	0.279388
210	1043924565													0.984389	0.713934	0.283460	-0.315392	-0.295840	-0.901669	-0.058001	-0.942377	0.329485	-0.947187	0.156215	0.280059
211	1043941232													-0.169277	-0.789932	1.080463	-0.320939	-0.294913	-0.900014	-0.073271	-0.939704	0.334046	-0.944261	0.173153	0.279979
212	1043957899													-0.394664	-0.847090	0.541987	-0.324466	-0.294714	-0.898814	-0.086210	-0.937054	0.338374	-0.941961	0.187278	0.278635
213	1043974566													-0.309268	-1.111882	0.133858	-0.327630	-0.294204	-0.897832	-0.097427	-0.934696	0.341836	-0.939769	0.199469	0.277571
214	1043991233													-0.240625	-1.110658	0.323910	-0.329673	-0.290635	-0.898247	-0.107628	-0.933664	0.341596	-0.937940	0.209291	0.276523
215	1044007900													-0.392322	-0.486009	0.555132	-0.330522	-0.285144	-0.899693	-0.117160	-0.933499	0.338900	-0.936498	0.217422	0.275135
216	1044024567													-0.039590	-0.016661	0.507541	-0.331387	-0.281434	-0.900543	-0.125043	-0.932955	0.337578	-0.935172	0.224475	0.273977
217	1044041234													0.262354	0.024659	0.344913	-0.332791	-0.279455	-0.900642	-0.131351	-0.932033	0.337729	-0.933808	0.230693	0.273466
218	1044057901													0.144059	0.051037	0.215176	-0.334456	-0.277954	-0.900489	-0.137041	-0.931015	0.338276	-0.932394	0.236542	0.273292
219	1044074568													-0.052536	-0.009764	0.196009	-0.338291	-0.278281	-0.898955	-0.140955	-0.929515	0.340784	-0.930425	0.241996	0.275221
220	1044091235													-0.179112	-0.292707	0.172197	-0.341982	-0.275667	-0.898363	-0.145825	-0.928855	0.340535	-0.928323	0.247461	0.277453
221	1044107902													0.209536	0.121524	0.204482	-0.345032	-0.270663	-0.898718	-0.151916	-0.928789	0.338042	-0.926215	0.253165	0.279344
222	1044124569													0.290159	0.432265	0.218090	-0.347404	-0.264911	-0.899518	-0.158815	-0.928785	0.334866	-0.924169	0.259191	0.280592
223	1044141236													0.233705	0.358057	0.170201	-0.349374	-0.258999	-0.900476	-0.166321	-0.928633	0.331629	-0.922104	0.265630	0.281364
224	1044157903													0.265427	0.196789	0.216765	-0.351179	-0.252402	-0.901647	-0.174382	-0.928500	0.327838	-0.919926	0.272361	0.282056
225	1044174570													0.343811	0.191770	0.344426	-0.352623	-0.244420	-0.903281	-0.183222	-0.928567	0.322789	-0.917653	0.279324	0.282650
226	1044191237													0.462300	0.238626	0.454350	-0.353721	-0.234898	-0.905375	-0.192795	-0.928857	0.316314	-0.915266	0.286438	0.283270
227	1044207904													0.426220	0.133064	0.652163	-0.354338	-0.223638	-0.907981	-0.203131	-0.929387	0.308183	-0.912788	0.293640	0.283890
228	1044224571													0.462173	0.488868	0.548245	-0.354260	-0.210862	-0.911064	-0.214499	-0.929949	0.298639	-0.910214	0.301218	0.284214
229	1044241238													0.606092	1.110358	0.099015	-0.353540	-0.197880	-0.914250	-0.227370	-0.929879	0.289186	-0.907366	0.310112	0.283758
230	1044257905													0.744665	1.532618	0.000744	-0.352306	-0.185075	-0.917403	-0.242356	-0.928772	0.280439	-0.903960	0.321138	0.282358
231	1044274572													0.584043	1.808260	0.256293	-0.350788	-0.172730	-0.920387	-0.260031	-0.926225	0.272932	-0.899628	0.335071	0.279993
232	1044291239													0.434176	1.939568	0.672274	-0.349134	-0.161183	-0.923106	-0.280178	-0.922077	0.266972	-0.894207	0.351843	0.276769
233	1044307906													0.187091	1.629778	1.141916	-0.347490	-0.149606	-0.925672	-0.302571	-0.916494	0.261705	-0.887526	0.371021	0.273206
234	1044324573													-0.344423	1.429218	1.289964	-0.345742	-0.137387	-0.928217	-0.327073	-0.909536	0.256450	-0.879480	0.392261	0.269530
235	1044341240													-0.930734	1.474022	1.227777	-0.343903	-0.126097	-0.930500	-0.353438	-0.900685	0.252684	-0.869950	0.415773	0.265180
236	1044357907													-1.117609	1.824868	1.896816	-0.341640	-0.116851	-0.932538	-0.380994	-0.889833	0.251079	-0.859142	0.441070	0.259483
237	1044374574													-0.300355	2.476510	2.366818	-0.338972	-0.109194	-0.934438	-0.409380	-0.877157	0.251006	-0.847057	0.467625	0.252630
238	1044391241													0.070612	2.895701	2.787551	-0.334857	-0.102031	-0.936728	-0.439374	-0.862521	0.251014	-0.833559	0.495628	0.243991
239	1044407908													-0.190283	3.834855	3.628599	-0.329180	-0.094940	-0.939482	-0.471456	-0.845524	0.250635	-0.818150	0.525429	0.233570
240	1044424575													0.227172	5.982252	3.596690	-0.321598	-0.088283	-0.942752	-0.505742	-0.825713	0.249845	-0.800500	0.557139	0.220899
241	1044441242													-0.487973	5.931395	3.918405	-0.315049	-0.079965	-0.945701	-0.541421	-0.803253	0.248288	-0.779492	0.590246	0.209769
242	1044457909													-1.104271	7.382262	2.713106	-0.305998	-0.068686	-0.949551	-0.580235	-0.777288	0.243209	-0.754780	0.625385	0.197994
243	1044474576													-0.548598	9.907058	2.622247	-0.295987	-0.056535	-0.953518	-0.619889	-0.748113	0.236779	-0.726725	0.661158	0.186386
244	1044491243													-1.099484	11.452620	1.531666	-0.286311	-0.040741	-0.957270	-0.657974	-0.717902	0.227348	-0.696488	0.694951	0.178737
245	1044507910													0.323199	13.086682	-1.693947	-0.271012	-0.018600	-0.962396	-0.694401	-0.688613	0.208853	-0.666603	0.724890	0.173706
246	1044524577													1.333423	11.669266	-5.229309	-0.260260	0.004245	-0.965529	-0.726385	-0.659663	0.192898	-0.636105	0.751550	0.174767
247	1044541244													2.972298	5.104529	-1.644803	-0.267458	0.013786	-0.963471	-0.752553	-0.627448	0.199930	-0.601772	0.778536	0.178191
248	1044557911													2.999941	2.840330	2.298334	-0.277505	0.021339	-0.960487	-0.779685	-0.589127	0.212179	-0.561322	0.807758	0.180123
249	1044574578													2.935418	11.357044	-0.846480	-0.276584	0.022385	-0.960729	-0.800089	-0.559136	0.217309	-0.532314	0.828773	0.172558
250	1044591245													0.890163	10.392047	-4.367855	-0.275499	0.021685	-0.961057	-0.807169	-0.548188	0.219016	-0.522090	0.836074	0.168529
251	1044607912													1.585215	7.298056	-3.962762	-0.278636	0.024011	-0.960097	-0.809869	-0.543204	0.221453	-0.516211	0.839257	0.170802
252	1044624579													1.936501	5.334880	-5.036644	-0.282932	0.023816	-0.958844	-0.808251	-0.544165	0.224979	-0.516411	0.838640	0.173211
253	1044641246													2.402517	3.596430	-7.256279	-0.289216	0.017610	-0.957102	-0.799865	-0.553730	0.231514	-0.525899	0.832510	0.174233
254	1044657913													2.516688	3.333898	-7.797788	-0.299374	0.004847	-0.954124	-0.783382	-0.572114	0.242894	-0.544690	0.820160	0.175073
255	1044674580													2.053280	4.022160	-6.959557	-0.311358	-0.013647	-0.950195	-0.759744	-0.597051	0.257527	-0.570829	0.802088	0.175528
256	1044691247													1.988897	4.304348	-5.542228	-0.324131	-0.036799	-0.945296	-0.729248	-0.626797	0.274450	-0.602608	0.778313	0.176329
257	1044707914													2.203767	3.941317	-4.330576	-0.336051	-0.063037	-0.939732	-0.691347	-0.661078	0.291573	-0.639616	0.747665	0.178576
258	1044724581													1.942487	2.841959	-3.144407	-0.342733	-0.088711	-0.935235	-0.646263	-0.700271	0.303258	-0.681820	0.708344	0.182675
259	1044741248													1.046380	2.193795	-2.167961	-0.341083	-0.108935	-0.933700	-0.594771	-0.744161	0.304093	-0.727949	0.659058	0.189029
260	1044757915													-0.137363	1.742260	-0.845558	-0.331350	-0.120932	-0.935726	-0.537708	-0.790730	0.292601	-0.775291	0.600101	0.196982
261	1044774582													-0.931518	0.950786	0.806596	-0.315573	-0.123667	-0.940808	-0.475794	-0.837205	0.269643	-0.820996	0.532723	0.205359
262	1044791249													-1.312447	-0.060953	1.951197	-0.296920	-0.119554	-0.947389	-0.408927	-0.880635	0.239291	-0.862912	0.458463	0.212589
263	1044807916													-1.512366	-0.856185	2.598376	-0.278483	-0.108736	-0.954266	-0.337011	-0.919332	0.203105	-0.899372	0.378160	0.219373
264	1044824583													-1.815991	-1.325639	3.627662	-0.264086	-0.096354	-0.959674	-0.258677	-0.951469	0.166714	-0.929163	0.292273	0.226345
265	1044841250													-2.525698	-1.216296	4.651421	-0.254435	-0.090671	-0.962830	-0.175505	-0.974734	0.138171	-0.951031	0.204137	0.232094
266	1044857917													-2.850619	-1.478088	5.798398	-0.247056	-0.095991	-0.964235	-0.089769	-0.988535	0.121411	-0.964834	0.116553	0.235606
267	1044874584													-2.600371	-4.351496	7.107868	-0.238869	-0.111274	-0.964655	-0.005822	-0.993231	0.116012	-0.971034	0.033328	0.236604
268	1044891251													-2.399136	-8.496901	6.680187	-0.228688	-0.131215	-0.964616	0.071641	-0.990456	0.117746	-0.970860	-0.042179	0.235906
269	1044907918													-2.022264	-12.143586	4.443512	-0.217165	-0.152606	-0.964132	0.140111	-0.982349	0.123931	-0.966027	-0.108172	0.234713
270	1044924585													-1.050878	-13.480293	0.382218	-0.203222	-0.176202	-0.963148	0.195312	-0.971201	0.136465	-0.959455	-0.160382	0.231784
271	1044941252													0.389902	-16.096731	-3.832012	-0.190745	-0.200528	-0.960940	0.232640	-0.960260	0.154208	-0.953675	-0.194138	0.229815
272	1044957919													0.565737	-18.024532	-5.991086	-0.181793	-0.221579	-0.958047	0.251188	-0.952423	0.172615	-0.950713	-0.209269	0.228802
273	1044974586													-0.109925	-17.984417	-6.227130	-0.177424	-0.236931	-0.955188	0.250602	-0.949469	0.188963	-0.951693	-0.205845	0.227834
274	1044991253													-0.751354	-15.720973	-5.064473	-0.176492	-0.249781	-0.952082	0.232679	-0.950439	0.206217	-0.956405	-0.185134	0.225863
275	1045007920													-0.667584	-12.621445	-2.566580	-0.177343	-0.262016	-0.948629	0.201120	-0.953214	0.225684	-0.963380	-0.150765	0.221742
276	1045024587													3.726720	18.948414	14.396280	-0.189646	-0.235821	-0.953112	0.175320	-0.963261	0.203448	-0.966073	-0.128516	0.224022
277	1045041254													-9.402641	4.107826	8.257246	-0.187289	-0.269585	-0.944588	0.171493	-0.955810	0.238784	-0.967219	-0.117268	0.225245
278	1045057921													-2.600699	-20.756440	-2.594713	-0.194190	-0.281643	-0.939663	0.136997	-0.956297	0.258317	-0.971351	-0.078569	0.224288
279	1045074588													3.947890	-6.179102	-0.758235	-0.200276	-0.281698	-0.938369	0.091117	-0.958978	0.268438	-0.975493	-0.031740	0.217728
280	1045091255													5.898234	5.655776	-1.077908	-0.212346	-0.281855	-0.935664	0.070018	-0.959428	0.273123	-0.974683	-0.007516	0.223465
281	1045107922													-0.719529	-10.471459	0.621641	-0.232349	-0.289031	-0.928695	0.050255	-0.957119	0.285304	-0.971333	0.019619	0.236911
282	1045124589													-3.511756	-3.571781	1.371307	-0.239289	-0.274082	-0.931461	0.018534	-0.960446	0.277850	-0.970771	0.049223	0.234904
283	1045141256													-1.601350	-4.310281	1.111892	-0.250888	-0.266331	-0.930657	-0.003192	-0.961174	0.275925	-0.968011	0.072197	0.240297
284	1045157923													-1.197565	-3.626185	0.560574	-0.260760	-0.244994	-0.933800	-0.025788	-0.965151	0.260421	-0.965059	0.091988	0.245355
285	1045174590													-0.659415	0.124202	-0.989227	-0.271203	-0.228835	-0.934924	-0.043954	-0.967370	0.249527	-0.961518	0.108767	0.252296
286	1045191257													1.784801	1.275859	0.341709	-0.280840	-0.218815	-0.934478	-0.059945	-0.967763	0.244625	-0.957881	0.124718	0.258669
287	1045207924													0.827879	1.697009	0.643806	-0.287866	-0.216101	-0.932970	-0.075158	-0.966105	0.246966	-0.954717	0.141213	0.261867
288	1045224591													0.200832	-0.249501	1.133488	-0.293261	-0.218832	-0.930651	-0.088671	-0.963029	0.254387	-0.951912	0.157123	0.263015
289	1045241258													0.353507	-0.474817	0.534517	-0.297120	-0.221598	-0.928770	-0.101144	-0.959920	0.261387	-0.949468	0.171602	0.262798
290	1045257925													0.447219	-0.933223	0.017287	-0.299524	-0.221296	-0.928070	-0.113592	-0.957539	0.264984	-0.947303	0.184790	0.261668
291	1045274592													0.129934	-1.009310	0.062175	-0.300576	-0.218324	-0.928433	-0.125751	-0.955878	0.265489	-0.945431	0.196551	0.259860
292	1045291259													0.081671	-0.278017	0.516961	-0.300380	-0.214220	-0.929452	-0.137244	-0.954606	0.264372	-0.943894	0.206974	0.257344
293	1045307926													0.362541	0.122280	0.865841	-0.299589	-0.211751	-0.930273	-0.147415	-0.953076	0.264415	-0.942611	0.216352	0.254315
294	1045324593													0.253187	0.179402	0.462027	-0.298147	-0.210528	-0.931014	-0.156920	-0.951293	0.265365	-0.941533	0.225212	0.250589
295	1045341260													-0.144916	-0.487407	0.175692	-0.297092	-0.209546	-0.931572	-0.166001	-0.949431	0.266503	-0.940309	0.233817	0.247283
296	1045357927													-0.149154	-0.518342	0.235329	-0.296112	-0.207378	-0.932369	-0.174518	-0.947967	0.266273	-0.939075	0.241562	0.244513
297	1045374594													-0.137086	-0.325679	0.230138	-0.295291	-0.204967	-0.933162	-0.182004	-0.946762	0.265548	-0.937912	0.248253	0.242265
298	1045391261													0.071955	0.089771	0.102280	-0.294144	-0.202286	-0.934109	-0.188957	-0.945747	0.264308	-0.936896	0.254251	0.239962
299	1045407928													0.140911	0.323209	0.052481	-0.293664	-0.200583	-0.934627	-0.195186	-0.944555	0.264043	-0.935769	0.259966	0.238231
300	1045424595													0.065435	0.046058	0.245929	-0.293081	-0.199063	-0.935135	-0.201463	-0.943266	0.263934	-0.934621	0.265749	0.236350
301	1045441262													-0.068453	0.131931	0.317299	-0.292456	-0.196233	-0.935928	-0.207896	-0.942264	0.262524	-0.933407	0.271352	0.234775
302	1045457929													-0.181510	0.032579	0.587863	-0.292070	-0.192132	-0.936899	-0.214785	-0.941413	0.260016	-0.931967	0.277175	0.233691
303	1045474596													0.080498	0.205605	0.533582	-0.291723	-0.185719	-0.938299	-0.222588	-0.940856	0.255430	-0.930243	0.283369	0.233131
304	1045491263													0.351002	0.463698	0.165972	-0.291125	-0.177311	-0.940110	-0.231516	-0.940409	0.249061	-0.928249	0.290158	0.232726
305	1045507930													0.586066	1.030855	-0.186744	-0.290227	-0.168310	-0.942040	-0.241946	-0.939523	0.242400	-0.925867	0.298274	0.231953
306	1045524597													0.767750	1.546782	-0.078865	-0.289169	-0.160817	-0.943673	-0.253939	-0.937584	0.237593	-0.922982	0.308340	0.230282
307	1045541264													0.715535	1.664484	0.142213	-0.287923	-0.155936	-0.944873	-0.267548	-0.934268	0.235713	-0.919521	0.320666	0.227277
308	1045557931													0.550586	1.962025	-0.027385	-0.286667	-0.153088	-0.945720	-0.283357	-0.929436	0.236343	-0.915167	0.335728	0.223061
309	1045574598													0.273960	2.074083	0.208886	-0.285550	-0.151702	-0.946281	-0.302144	-0.922786	0.239111	-0.909489	0.354192	0.217666
310	1045591265													0.127787	2.234519	0.721756	-0.284621	-0.151126	-0.946653	-0.324229	-0.914125	0.243416	-0.902145	0.376214	0.211180
311	1045607932													0.035975	2.373349	1.143069	-0.283740	-0.150475	-0.947021	-0.350030	-0.903207	0.248387	-0.892732	0.401963	0.203605
312	1045624599													0.565361	2.671219	1.377462	-0.283009	-0.150006	-0.947314	-0.379491	-0.889579	0.254236	-0.880848	0.431448	0.194833
313	1045641266													-0.028605	2.628623	2.032182	-0.282102	-0.148845	-0.947768	-0.412563	-0.873063	0.259911	-0.866147	0.464335	0.184885
314	1045657933													-1.300317	2.941332	2.796035	-0.279801	-0.147219	-0.948703	-0.449679	-0.852977	0.264988	-0.848233	0.500756	0.172463
315	1045674600													-0.818896	4.226129	5.177198	-0.274865	-0.145990	-0.950335	-0.490347	-0.828922	0.269161	-0.827048	0.539977	0.156256
316	1045691267													-0.121098	6.872678	6.938326	-0.268994	-0.144955	-0.952171	-0.532449	-0.801425	0.272426	-0.802584	0.580264	0.138397
317	1045707934													-0.313519	7.122170	7.085329	-0.261681	-0.139538	-0.955014	-0.573883	-0.773078	0.270203	-0.776004	0.618773	0.122221
318	1045724601													-0.470818	8.608264	4.563502	-0.255690	-0.127988	-0.958249	-0.612790	-0.745183	0.263041	-0.747738	0.654462	0.112107
319	1045741268													-0.501105	9.916248	2.308971	-0.249137	-0.112956	-0.961858	-0.649055	-0.717653	0.252394	-0.718790	0.687180	0.105479
320	1045757935													0.125304	10.710149	-1.653604	-0.244938	-0.103747	-0.963972	-0.682965	-0.687243	0.247501	-0.688160	0.718981	0.097476
321	1045774602													1.836166	8.733485	-4.620177	-0.250477	-0.107544	-0.962131	-0.710383	-0.654772	0.258126	-0.657736	0.748137	0.087608
322	1045791269													1.577214	2.603754	-3.645272	-0.261322	-0.114821	-0.958398	-0.731801	-0.623889	0.274282	-0.629427	0.773032	0.079009
323	1045807936													2.260516	5.758435	-4.884395	-0.266257	-0.127164	-0.955477	-0.744009	-0.603108	0.287595	-0.612827	0.787458	0.065970
324	1045824603													1.005179	6.511438	-5.882689	-0.266088	-0.144366	-0.953077	-0.744925	-0.596714	0.298361	-0.611787	0.789361	0.051237
325	1045841270													1.121159	5.056055	-5.437736	-0.269040	-0.167072	-0.948527	-0.740990	-0.593228	0.314665	-0.615265	0.787507	0.035804
326	1045857937													1.748902	3.927187	-6.173171	-0.274147	-0.197580	-0.941173	-0.730783	-0.593377	0.337431	-0.625140	0.780299	0.018285
327	1045874604													1.775203	2.465625	-6.674315	-0.278442	-0.235293	-0.931186	-0.714324	-0.597370	0.364541	-0.642036	0.766672	-0.001742
328	1045891271													1.477217	1.606563	-6.085021	-0.282319	-0.279515	-0.917697	-0.692091	-0.603088	0.396605	-0.664309	0.747099	-0.023187
329	1045907938													1.655865	1.130105	-4.264175	-0.283137	-0.327692	-0.901361	-0.665067	-0.610067	0.430703	-0.691028	0.721413	-0.045204
330	1045924605													1.696078	0.844823	-3.321066	-0.279897	-0.378596	-0.882226	-0.632919	-0.618199	0.466093	-0.721853	0.688836	-0.066588
331	1045941272													1.871591	0.593821	-2.804714	-0.271915	-0.431138	-0.860339	-0.596109	-0.626379	0.502298	-0.755457	0.649438	-0.086683
332	1045957939													2.275017	1.005174	-1.762106	-0.260331	-0.486176	-0.834183	-0.554116	-0.632296	0.541441	-0.790686	0.603187	-0.104792
333	1045974606													2.509277	0.730133	0.383293	-0.245784	-0.543861	-0.802374	-0.507727	-0.632896	0.584514	-0.825714	0.551052	-0.120578
334	1045991273													2.808181	-0.559106	2.094356	-0.228546	-0.603675	-0.763769	-0.458268	-0.625466	0.631492	-0.858928	0.494336	-0.133697
335	1046007940													3.696302	-1.609260	2.913022	-0.210170	-0.666231	-0.715517	-0.407249	-0.605687	0.683587	-0.888806	0.435063	-0.144024
336	1046024607													4.988169	-3.996906	4.422244	-0.195041	-0.732435	-0.652302	-0.357361	-0.566287	0.742706	-0.913374	0.377965	-0.151295
337	1046041274													4.515490	-7.278456	5.602943	-0.181810	-0.798759	-0.573523	-0.312175	-0.506188	0.803941	-0.932466	0.325204	-0.157323
338	1046057941													2.406580	-11.771649	6.026511	-0.171694	-0.859943	-0.480644	-0.275686	-0.426455	0.861471	-0.945790	0.280416	-0.163855
339	1046074608													-0.955537	-15.851160	2.352585	-0.165225	-0.910503	-0.379059	-0.248902	-0.333406	0.909334	-0.954331	0.244593	-0.171539
340	1046091275													-4.569391	-16.748490	1.544393	-0.163164	-0.944814	-0.284083	-0.234394	-0.242575	0.941391	-0.958351	0.220188	-0.181879
341	1046107942													-6.919789	-15.646936	0.805572	-0.163934	-0.964768	-0.205785	-0.228086	-0.165885	0.959405	-0.959741	0.204216	-0.192856
342	1046124609													-7.337352	-12.627032	-1.563041	-0.165721	-0.974816	-0.149235	-0.225074	-0.109946	0.968119	-0.960145	0.194027	-0.201185
343	1046141276													-5.886345	-9.112618	-2.517689	-0.168735	-0.978871	-0.115496	-0.222703	-0.076284	0.971897	-0.960173	0.189715	-0.205126
344	1046157943													-3.275391	-5.712856	-2.611821	-0.171715	-0.980146	-0.099134	-0.218474	-0.060235	0.973982	-0.960616	0.188905	-0.203794
345	1046174610													-3.497016	-7.293376	-3.146791	-0.177033	-0.980008	-0.090798	-0.210525	-0.052413	0.976182	-0.961425	0.191931	-0.197037
346	1046191277													-7.375269	-8.737436	-0.868575	-0.188048	-0.978217	-0.087922	-0.203513	-0.048767	0.977857	-0.960844	0.201777	-0.189909
347	1046207944													-4.627291	-3.560405	1.569020	-0.194856	-0.975979	-0.097447	-0.201724	-0.057350	0.977762	-0.959864	0.210181	-0.185703
348	1046224611													2.792296	1.941629	2.306028	-0.199698	-0.974681	-0.100589	-0.196306	-0.060779	0.978657	-0.959992	0.215182	-0.179199
349	1046241278													4.380575	5.614303	5.051735	-0.203157	-0.974865	-0.091464	-0.191946	-0.051948	0.980030	-0.960148	0.216656	-0.176568
350	1046257945													-0.902171	4.266378	4.829052	-0.206735	-0.975632	-0.073497	-0.190264	-0.033596	0.981158	-0.959719	0.216824	-0.178682
351	1046274612													-2.741134	4.557759	1.515622	-0.211488	-0.976087	-0.050271	-0.188791	-0.009668	0.981970	-0.958974	0.217165	-0.182232
352	1046291279													-2.247902	1.666978	-2.049705	-0.217643	-0.975702	-0.025245	-0.186676	0.016225	0.982287	-0.958010	0.218500	-0.185672
353	1046307946													-0.635107	-1.659093	-1.986722	-0.224644	-0.974439	-0.001773	-0.182933	0.040386	0.982296	-0.957116	0.220991	-0.187329
354	1046324613													0.728126	-3.303674	-0.148304	-0.231625	-0.972645	0.017629	-0.178194	0.060236	0.982150	-0.956346	0.224349	-0.187272
355	1046341280													-0.417071	-2.412455	1.373089	-0.238057	-0.970729	0.031857	-0.173823	0.074852	0.981928	-0.955570	0.228217	-0.186554
356	1046357947													-1.644978	-0.880691	0.992273	-0.242605	-0.969310	0.039767	-0.171560	0.083212	0.981653	-0.954835	0.231332	-0.186482
357	1046374614													-1.430333	-0.575374	0.392833	-0.246500	-0.968237	0.041890	-0.169766	0.085695	0.981751	-0.954158	0.234890	-0.185498
358	1046391281													-0.318365	-0.071104	0.027462	-0.250301	-0.967218	0.042870	-0.167820	0.086954	0.981975	-0.953512	0.238595	-0.184083
359	1046407948													0.314217	0.123640	0.187080	-0.253121	-0.966295	0.046943	-0.165577	0.091078	0.981982	-0.953160	0.240788	-0.183050
360	1046424615													-0.034829	-0.090990	0.543245	-0.255159	-0.965353	0.054666	-0.162935	0.098658	0.981692	-0.953072	0.241580	-0.182463
361	1046441282													-0.029801	-0.247261	0.533560	-0.256705	-0.964313	0.064825	-0.160108	0.108576	0.981110	-0.953136	0.241477	-0.182266
362	1046457949													-0.888173	0.219543	0.447075	-0.257508	-0.963272	0.076142	-0.157112	0.119490	0.980325	-0.953418	0.240479	-0.182111
363	1046474616													-0.926790	-0.326902	0.485435	-0.257462	-0.962418	0.086397	-0.154214	0.129190	0.979555	-0.953903	0.238875	-0.181680
364	1046491283													-0.829464	-0.405119	0.447972	-0.257166	-0.961616	0.095713	-0.151070	0.137831	0.978867	-0.954486	0.237272	-0.180717
365	1046507950													-0.762221	-0.332512	0.348916	-0.256236	-0.960985	0.104170	-0.147883	0.145472	0.978248	-0.955235	0.235258	-0.179388
366	1046524617													-0.654246	-0.220449	0.060647	-0.255219	-0.960405	0.111735	-0.144669	0.152192	0.977706	-0.955999	0.233364	-0.177783
367	1046541284													-0.899592	0.159146	0.117968	-0.254336	-0.959924	0.117722	-0.141573	0.157368	0.977339	-0.956698	0.231907	-0.175924
368	1046557951													-1.028730	0.051477	0.109221	-0.254003	-0.959528	0.121610	-0.138504	0.160522	0.977266	-0.957235	0.231385	-0.173671
369	1046574618													-0.653003	-0.077515	0.209167	-0.253551	-0.959340	0.124013	-0.135503	0.162163	0.977416	-0.957784	0.231021	-0.171110
370	1046591285													-0.010436	-0.442794	0.214703	-0.252788	-0.959106	0.127337	-0.132440	0.164675	0.977416	-0.958414	0.230214	-0.168651
371	1046607952													-0.228924	-0.213793	0.263911	-0.251474	-0.958721	0.132720	-0.129263	0.169167	0.977074	-0.959193	0.228553	-0.166469
372	1046624619													-0.545366	-0.199244	0.199182	-0.249730	-0.958269	0.139122	-0.125840	0.174574	0.976570	-0.960104	0.226372	-0.164185
373	1046641286													-1.048298	-0.042352	0.277850	-0.247729	-0.957880	0.145243	-0.121841	0.179528	0.976179	-0.961137	0.224131	-0.161183
374	1046657953													-0.940165	0.153725	0.181205	-0.245741	-0.957634	0.150164	-0.117426	0.183183	0.976041	-0.962197	0.222220	-0.157467
375	1046674620													-0.558205	0.007765	0.115460	-0.244328	-0.957424	0.153762	-0.113036	0.185607	0.976101	-0.963082	0.221108	-0.153573
376	1046691287													-0.014563	-0.226689	0.130259	-0.243297	-0.957221	0.156633	-0.109160	0.187481	0.976184	-0.963790	0.220404	-0.150104
377	1046707954													0.033817	-0.522028	0.097559	-0.242357	-0.956720	0.161092	-0.105499	0.191046	0.975895	-0.964434	0.219520	-0.147234
378	1046724621													0.128283	-0.540100	0.157837	-0.241425	-0.955631	0.168768	-0.101199	0.197758	0.975013	-0.965128	0.218313	-0.144452
379	1046741288													-0.037808	-0.312620	0.176575	-0.240922	-0.953830	0.179344	-0.096256	0.207358	0.973518	-0.965759	0.217280	-0.141769
380	1046757955													-0.475279	-0.017687	0.118173	-0.239359	-0.952282	0.189382	-0.092408	0.216510	0.971897	-0.966524	0.215132	-0.139822
381	1046774622													-0.458827	-0.115992	0.218494	-0.236878	-0.951021	0.198616	-0.089696	0.224969	0.970229	-0.967390	0.212011	-0.138593
382	1046791289													-0.577399	-0.209488	0.389423	-0.233828	-0.949956	0.207144	-0.087650	0.232778	0.968572	-0.968319	0.208324	-0.137694
383	1046807956													-0.551554	-0.247115	0.327595	-0.230097	-0.949016	0.215461	-0.085895	0.240343	0.966880	-0.969369	0.203970	-0.136818
384	1046824623													-0.772942	-0.219668	0.284605	-0.225886	-0.948145	0.223601	-0.084205	0.247679	0.965176	-0.970508	0.199191	-0.135786
385	1046841290													-0.780581	-0.288130	0.223526	-0.221155	-0.947466	0.231083	-0.082430	0.254263	0.963616	-0.971749	0.194060	-0.134331
386	1046857957													-0.815763	-0.180608	0.199284	-0.215991	-0.946975	0.237879	-0.080515	0.260075	0.962226	-0.973070	0.188680	-0.132419
387	1046874624													-0.558482	-0.265348	0.190228	-0.210393	-0.946529	0.244576	-0.078506	0.265726	0.960847	-0.974460	0.182955	-0.130215
388	1046891291													-0.487124	-0.253267	0.180100	-0.204409	-0.945960	0.251746	-0.076401	0.271809	0.959314	-0.975899	0.176859	-0.127832
389	1046907958													-0.441474	-0.284742	0.134539	-0.197817	-0.945318	0.259312	-0.074271	0.278233	0.957638	-0.977421	0.170178	-0.125249
390	1046924625													-0.900197	-0.327358	0.262995	-0.190693	-0.944668	0.266907	-0.072058	0.284633	0.955925	-0.979001	0.163056	-0.122348
391	1046941292													-0.960580	-0.263891	0.306796	-0.182801	-0.944386	0.273348	-0.069748	0.289789	0.954546	-0.980673	0.155427	-0.118843
392	1046957959													-0.783386	-0.269909	0.275063	-0.174213	-0.944393	0.278874	-0.067285	0.293960	0.953447	-0.982406	0.147339	-0.114755
393	1046974626													-0.677323	-0.242865	0.189398	-0.164860	-0.944329	0.284718	-0.064482	0.298369	0.952270	-0.984207	0.138632	-0.110082
394	1046991293													-0.746554	-0.247015	0.220890	-0.154729	-0.944404	0.290104	-0.061363	0.302260	0.951248	-0.986049	0.129383	-0.104720
395	1047007960													-0.552165	-0.447304	0.172003	-0.143899	-0.944439	0.295514	-0.057958	0.306153	0.950216	-0.987894	0.119607	-0.098793
396	1047024627													-0.695843	-0.480027	0.105247	-0.132192	-0.944232	0.301582	-0.054282	0.310692	0.948960	-0.989737	0.109075	-0.092326
397	1047041294													-0.874253	-0.445875	0.123554	-0.120018	-0.944008	0.307320	-0.050312	0.314943	0.947776	-0.991496	0.098288	-0.085294
398	1047057961													-0.876587	-0.610816	0.331367	-0.107562	-0.944159	0.311440	-0.046140	0.317661	0.947081	-0.993127	0.087500	-0.077732
399	1047074628													-0.507454	-1.586119	0.118688	-0.094237	-0.944535	0.314599	-0.041827	0.319483	0.946668	-0.994671	0.076052	-0.069614
400	1047091295													0.022558	-1.048593	-0.293709	-0.080827	-0.944522	0.318348	-0.037973	0.322079	0.945951	-0.996005	0.064370	-0.061899
401	1047107962													-0.273085	-1.204247	-0.079012	-0.068058	-0.944365	0.321781	-0.036150	0.324651	0.945143	-0.997026	0.052692	-0.056233
402	1047124629													-0.150077	-1.198357	0.443343	-0.055355	-0.944520	0.323756	-0.036751	0.325961	0.944669	-0.997790	0.040394	-0.052755
403	1047141296													0.441048	-1.926191	0.517384	-0.041892	-0.944716	0.325203	-0.041172	0.326845	0.944181	-0.998273	0.026164	-0.052588
404	1047157963													0.373915	-1.825224	0.867975	-0.027452	-0.944338	0.327828	-0.051463	0.328852	0.942978	-0.998298	0.009016	-0.057626
405	1047174630													-0.267757	-2.524136	1.094194	-0.011886	-0.943897	0.330027	-0.068620	0.330043	0.941469	-0.997572	-0.011456	-0.068693
406	1047191297													-1.013367	-3.248771	1.372012	0.004303	-0.943592	0.331081	-0.093782	0.329244	0.939576	-0.995583	-0.035092	-0.087075
407	1047207964													0.774514	-5.481011	1.429546	0.018230	-0.940797	0.338479	-0.126493	0.333645	0.934174	-0.991800	-0.059846	-0.112921
408	1047224631													3.231355	-5.585065	1.729832	0.028227	-0.930629	0.364873	-0.164078	0.355754	0.920064	-0.986043	-0.085839	-0.142654
409	1047241298													1.524803	-5.942880	1.964380	0.032317	-0.912417	0.407984	-0.206512	0.393293	0.895920	-0.977910	-0.113207	-0.175715
410	1047257965													-1.098013	-6.358776	2.471825	0.030240	-0.886219	0.462278	-0.248526	0.441300	0.862258	-0.968153	-0.140963	-0.206903
411	1047274632													-2.246967	-6.277618	1.286428	0.022810	-0.853647	0.520353	-0.288263	0.492766	0.821027	-0.957280	-0.168726	-0.234835
412	1047291299													-1.725113	-5.803703	-0.127123	0.010606	-0.816362	0.577443	-0.323686	0.543581	0.774434	-0.946105	-0.195124	-0.258480
413	1047307966													-3.214196	-4.260765	-0.604771	-0.004894	-0.777778	0.628520	-0.357011	0.588466	0.725432	-0.934087	-0.220838	-0.280555
414	1047324633													-2.768366	-4.161084	-1.035735	-0.021098	-0.740988	0.671187	-0.386508	0.625185	0.678053	-0.922045	-0.245113	-0.299588
415	1047341300													-1.892524	-4.282196	-1.049234	-0.037864	-0.706610	0.706590	-0.410434	0.655698	0.633722	-0.911104	-0.266014	-0.314844
416	1047357967													-1.072988	-4.294893	-1.012682	-0.054849	-0.673752	0.736919	-0.429585	0.682156	0.591709	-0.901359	-0.284115	-0.326849
417	1047374634													-0.786492	-4.318809	-1.169814	-0.072056	-0.641482	0.763746	-0.444174	0.706253	0.551287	-0.893038	-0.299513	-0.335819
418	1047391301													-0.481482	-4.466165	-1.442144	-0.089192	-0.609660	0.787629	-0.454099	0.728703	0.512626	-0.886476	-0.311939	-0.341841
419	1047407968													0.046857	-4.669723	-1.687915	-0.106052	-0.577312	0.809607	-0.458828	0.750750	0.475239	-0.882173	-0.321070	-0.344505
420	1047424635													0.012742	-4.624321	-1.991248	-0.122285	-0.544388	0.829872	-0.458366	0.772612	0.439284	-0.880311	-0.326667	-0.344008
421	1047441302													-0.217325	-4.478730	-2.237349	-0.138338	-0.510007	0.848973	-0.452455	0.795077	0.403903	-0.880992	-0.328246	-0.340745
422	1047457969													-0.356932	-4.212841	-2.292813	-0.153202	-0.474634	0.866748	-0.440735	0.817854	0.369957	-0.884467	-0.325328	-0.334485
423	1047474636													-0.513362	-3.923331	-2.188227	-0.166284	-0.438613	0.883158	-0.422899	0.840800	0.337951	-0.890789	-0.317291	-0.325301
424	1047491303													-0.728847	-3.431022	-1.743506	-0.177525	-0.402019	0.898257	-0.399127	0.863729	0.307685	-0.899546	-0.303897	-0.313790
425	1047507970													-0.906489	-2.848138	-1.082199	-0.186553	-0.365679	0.911853	-0.369860	0.886004	0.279644	-0.910166	-0.285090	-0.300537
426	1047524637													-0.903203	-2.258744	-0.426651	-0.193542	-0.329723	0.924026	-0.335255	0.907366	0.253557	-0.922033	-0.260711	-0.286155
427	1047541304													-0.891894	-1.585038	0.200204	-0.198179	-0.295561	0.934542	-0.295925	0.927003	0.230423	-0.934427	-0.230889	-0.271176
428	1047557971													-0.870853	-0.884324	0.746458	-0.200915	-0.263490	0.943507	-0.252404	0.944552	0.210034	-0.946533	-0.195946	-0.256280
429	1047574638													-0.731629	-0.414690	1.250824	-0.201945	-0.232996	0.951279	-0.205306	0.959781	0.191495	-0.957636	-0.156632	-0.241658
430	1047591305													-0.620760	0.394140	1.642805	-0.201453	-0.203860	0.958049	-0.155782	0.972321	0.174140	-0.967031	-0.114166	-0.227634
431	1047607972													-0.677404	1.160269	1.930917	-0.199431	-0.174878	0.964181	-0.104736	0.982114	0.156467	-0.974299	-0.069781	-0.214180
432	1047624639													-0.697832	1.885064	2.327620	-0.195752	-0.145452	0.969807	-0.052791	0.989068	0.137685	-0.979232	-0.024245	-0.201290
433	1047641306													-0.565218	2.942662	2.523695	-0.190341	-0.116076	0.974832	-0.001062	0.993009	0.118033	-0.981717	0.021432	-0.189133
434	1047657973													-0.381201	3.768149	2.312018	-0.182939	-0.087072	0.979261	0.049088	0.994019	0.097554	-0.981898	0.065917	-0.177571
435	1047674640													-0.313375	4.669515	1.840346	-0.173050	-0.057356	0.983242	0.096862	0.992472	0.074942	-0.980138	0.108207	-0.166192
436	1047691307													-0.678749	5.483106	1.296378	-0.161227	-0.027292	0.986540	0.141556	0.988642	0.050484	-0.976713	0.147790	-0.155533
437	1047707974													-1.252189	6.279364	0.510373	-0.148708	0.002101	0.988879	0.182615	0.982857	0.025373	-0.971873	0.184357	-0.146543
438	1047724641													-1.761862	7.672613	-0.392257	-0.137046	0.028839	0.990145	0.218726	0.975784	0.001853	-0.966114	0.216825	-0.140035
439	1047741308													-1.917980	8.492189	-1.283905	-0.126882	0.052124	0.990547	0.248125	0.968538	-0.019183	-0.960383	0.243345	-0.135823
440	1047757975													-1.740018	9.009133	-2.427013	-0.117257	0.075295	0.990243	0.269312	0.962168	-0.041270	-0.955888	0.261845	-0.133099
441	1047774642													-1.900180	9.497652	-3.947617	-0.108600	0.097999	0.989243	0.279808	0.957909	-0.064177	-0.953894	0.269828	-0.131450
442	1047791309													-2.195904	10.170483	-4.787858	-0.102195	0.119846	0.987519	0.279161	0.956280	-0.087165	-0.954791	0.266768	-0.131183
443	1047807976													-1.627543	10.760430	-4.273032	-0.098828	0.140836	0.985088	0.267805	0.957176	-0.109978	-0.958391	0.252942	-0.132313
444	1047824643													-0.927856	10.928278	-3.822789	-0.097735	0.160083	0.982253	0.246866	0.960031	-0.131898	-0.964108	0.229593	-0.133348
445	1047841310													-0.675125	10.403886	-3.391568	-0.099630	0.175783	0.979374	0.217663	0.964283	-0.150932	-0.970926	0.198136	-0.134333
446	1047857977													-2.588104	-2.799098	3.731456	-0.104900	0.172758	0.979362	0.189687	0.970191	-0.150823	-0.976225	0.169951	-0.134543
447	1047874644													10.545105	-23.902039	15.093016	-0.111672	0.153356	0.981841	0.186809	0.973646	-0.130828	-0.976028	0.168807	-0.137378
448	1047891311													1.798659	10.822647	0.372732	-0.119704	0.163085	0.979323	0.177242	0.974080	-0.140547	-0.976860	0.156753	-0.145507
449	1047907978													-1.236895	15.247332	-4.783488	-0.125441	0.162508	0.978701	0.146125	0.978760	-0.143789	-0.981281	0.124976	-0.146524
450	1047924645													0.247300	4.710766	2.312086	-0.133091	0.145625	0.980347	0.106980	0.985478	-0.131863	-0.985313	0.087328	-0.146738
451	1047941312													-3.429819	-7.592853	-0.714727	-0.141125	0.144823	0.979342	0.090154	0.987012	-0.132966	-0.985878	0.069527	-0.152348
452	1047957979													-6.927403	7.188919	-1.317076	-0.155991	0.161116	0.974530	0.077451	0.985565	-0.150543	-0.984717	0.051995	-0.166217
453	1047974646													1.006093	2.189923	2.926733	-0.164423	0.160387	0.973263	0.053423	0.986692	-0.153575	-0.984942	0.026743	-0.170803
454	1047991313													0.373768	3.983730	-0.315415	-0.172196	0.166862	0.970827	0.034672	0.985965	-0.163314	-0.984452	0.005538	-0.175564
455	1048007980													-1.489112	4.130853	0.902146	-0.180934	0.164166	0.969697	0.015684	0.986327	-0.164055	-0.983370	-0.014474	-0.181034
456	1048024647													-2.019536	1.503248	-0.026961	-0.188054	0.157160	0.969503	-0.000467	0.987100	-0.160103	-0.982159	-0.030560	-0.185554
457	1048041314													-1.867019	1.311051	-1.059711	-0.193904	0.147939	0.969802	-0.013841	0.988053	-0.153491	-0.980923	-0.043185	-0.189540
458	1048057981													-0.802949	0.680688	-0.164333	-0.199093	0.138682	0.970118	-0.025647	0.988860	-0.146624	-0.979645	-0.054072	-0.193319
459	1048074648													-0.419695	-0.510272	0.466472	-0.204009	0.133735	0.969791	-0.036673	0.988886	-0.144083	-0.978282	-0.064959	-0.196837
460	1048091315													-0.762403	-0.188100	0.525817	-0.208923	0.132958	0.968852	-0.046690	0.988229	-0.145685	-0.976817	-0.075673	-0.200256
461	1048107982													-0.970893	-0.015176	-0.349730	-0.213586	0.134955	0.967558	-0.055508	0.987136	-0.149939	-0.975346	-0.085733	-0.203348
462	1048124649													-0.738176	0.348479	-0.081758	-0.217668	0.139182	0.966048	-0.063610	0.985653	-0.156339	-0.973948	-0.095480	-0.205692
463	1048141316													-0.690250	0.405754	0.355752	-0.221051	0.145211	0.964391	-0.071360	0.983794	-0.164490	-0.972648	-0.105180	-0.207106
464	1048157983													-0.719308	0.844762	0.449039	-0.224415	0.151693	0.962615	-0.078589	0.981776	-0.173034	-0.971320	-0.114482	-0.208404
465	1048174650													-0.686922	1.652074	0.358183	-0.227648	0.155117	0.961309	-0.085601	0.980220	-0.178439	-0.969974	-0.122910	-0.209867
466	1048191317													-0.669730	1.978750	0.123855	-0.230783	0.153600	0.960805	-0.092515	0.979524	-0.178814	-0.968597	-0.130156	-0.211847
467	1048207984													-0.949833	1.534776	0.222800	-0.233711	0.147539	0.961047	-0.099129	0.979654	-0.174502	-0.967240	-0.136051	-0.214331
468	1048224651													-0.901432	0.686651	0.499617	-0.235560	0.139401	0.961810	-0.105775	0.980103	-0.167958	-0.966086	-0.141300	-0.216128
469	1048241318													-0.994300	-0.053878	0.596602	-0.236207	0.131565	0.962755	-0.112363	0.980447	-0.161551	-0.965184	-0.146337	-0.216805
470	1048257985													-0.652759	0.043048	0.407825	-0.235969	0.125696	0.963597	-0.118446	0.980485	-0.156905	-0.964515	-0.151159	-0.216476
471	1048274652													-0.849804	0.128507	0.209785	-0.234748	0.121617	0.964418	-0.124619	0.980190	-0.153940	-0.964035	-0.156321	-0.214942
472	1048291319													-0.907511	0.062561	0.041991	-0.233247	0.118891	0.965122	-0.130389	0.979711	-0.152200	-0.963636	-0.161342	-0.213013
473	1048307986													-0.644030	0.761535	0.217910	-0.231611	0.116212	0.965842	-0.136194	0.979187	-0.150478	-0.963228	-0.166394	-0.210963
474	1048324653													-0.653740	0.744539	0.294772	-0.229890	0.112512	0.966691	-0.141991	0.978789	-0.147687	-0.962803	-0.171213	-0.209038
475	1048341320													-0.834888	0.838489	0.323732	-0.228407	0.107174	0.967649	-0.147727	0.978598	-0.143257	-0.962293	-0.175669	-0.207686
476	1048357987													-1.035451	0.364420	0.046161	-0.227185	0.099929	0.968711	-0.153505	0.978611	-0.136951	-0.961677	-0.179816	-0.206986
477	1048374654													-0.968508	0.393710	0.214128	-0.226382	0.091613	0.969721	-0.159204	0.978699	-0.129628	-0.960940	-0.183729	-0.206975
478	1048391321													-0.627656	0.318458	0.403382	-0.225413	0.083225	0.970702	-0.165258	0.978640	-0.122281	-0.960145	-0.187980	-0.206844
479	1048407988													-0.740758	-0.106433	0.319031	-0.224756	0.075796	0.971463	-0.171368	0.978356	-0.115982	-0.959228	-0.192546	-0.206903
480	1048424655													-0.839325	-0.313239	0.152452	-0.224117	0.069487	0.972082	-0.177837	0.977791	-0.110896	-0.958199	-0.197726	-0.206783
481	1048441322													-0.843149	-0.088811	0.081050	-0.223293	0.063730	0.972666	-0.185289	0.976891	-0.106543	-0.956979	-0.204014	-0.206325
482	1048457989													-0.754611	-0.161152	0.203883	-0.222136	0.058048	0.973286	-0.194060	0.975622	-0.102478	-0.955508	-0.211640	-0.205456
483	1048474656													-0.822893	-0.435484	0.231582	-0.220766	0.052238	0.973927	-0.204421	0.973907	-0.098574	-0.953664	-0.220853	-0.204327
484	1048491323													-0.888175	-0.864317	0.176662	-0.218912	0.046570	0.974633	-0.217101	0.971497	-0.095183	-0.951286	-0.232431	-0.202563
485	1048507990													-1.391517	-1.725990	-0.085325	-0.217024	0.042647	0.975234	-0.232308	0.968086	-0.094031	-0.948121	-0.246962	-0.200191
486	1048524657													-1.352299	-1.149694	0.203332	-0.215710	0.040505	0.975617	-0.249624	0.963652	-0.095200	-0.944011	-0.264073	-0.197758
487	1048541324													-1.032380	-0.223010	0.790554	-0.214183	0.038507	0.976034	-0.268674	0.958358	-0.096768	-0.939117	-0.282961	-0.194918
488	1048557991													-0.584076	0.127073	1.400897	-0.212076	0.035213	0.976619	-0.288891	0.952428	-0.097074	-0.933577	-0.302724	-0.191814
489	1048574658													-0.648803	-0.062773	1.670890	-0.208741	0.030495	0.977495	-0.310029	0.945897	-0.095715	-0.927529	-0.323032	-0.187993
490	1048591325													-1.046727	-0.510277	1.600008	-0.204300	0.024823	0.978594	-0.332100	0.938634	-0.093141	-0.920853	-0.344020	-0.183520
491	1048607992													-1.317477	-0.533315	1.783768	-0.198597	0.017943	0.979917	-0.354895	0.930664	-0.088966	-0.913569	-0.365436	-0.178459
492	1048624659													-0.535103	-0.887536	2.357863	-0.190851	0.010428	0.981564	-0.378330	0.921910	-0.083355	-0.905783	-0.387263	-0.172002
493	1048641326													-0.802296	-1.903782	3.389053	-0.180206	0.004376	0.983619	-0.403016	0.911872	-0.077892	-0.897276	-0.410451	-0.162561
494	1048657993													-0.344022	-2.373304	2.994700	-0.170635	-0.000713	0.985334	-0.427848	0.900862	-0.073441	-0.887598	-0.434104	-0.154024
495	1048674660													0.560934	-2.236834	2.687692	-0.159337	-0.006529	0.987203	-0.454446	0.888215	-0.067474	-0.876408	-0.459381	-0.144493
496	1048691327													0.460626	-3.566594	2.709515	-0.147253	-0.012084	0.989025	-0.482637	0.873681	-0.061184	-0.863353	-0.486350	-0.134485
497	1048707994													0.335584	-4.713728	2.776848	-0.135147	-0.016285	0.990692	-0.511940	0.857210	-0.055747	-0.848323	-0.514709	-0.124186
498	1048724661													0.357327	-5.091223	2.485168	-0.123616	-0.021653	0.992094	-0.541794	0.839070	-0.049195	-0.831371	-0.543592	-0.115454
499	1048741328													0.557957	-6.136844	1.902830	-0.110530	-0.030072	0.993418	-0.572358	0.819081	-0.038887	-0.812521	-0.572889	-0.107745
500	1048757995													0.068123	-7.658897	0.792990	-0.095393	-0.038357	0.994700	-0.603599	0.796825	-0.027159	-0.791561	-0.602991	-0.099164
501	1048774662													-2.048424	-9.381794	-2.509774	-0.083720	-0.045056	0.995470	-0.634298	0.772870	-0.018364	-0.768542	-0.632963	-0.093283
502	1048791329													-3.358966	-8.166695	-2.790285	-0.084625	-0.043272	0.995473	-0.663922	0.747418	-0.023951	-0.742998	-0.662943	-0.091980
503	1048807996													-4.947627	-5.394499	-1.413834	-0.096455	-0.030385	0.994873	-0.693682	0.718855	-0.045299	-0.713793	-0.694496	-0.090415
504	1048824663													-4.941650	-3.997405	0.610004	-0.118106	-0.014032	0.992902	-0.724151	0.685391	-0.076452	-0.679453	-0.728040	-0.091110
505	1048841330													-2.695635	-6.834831	1.343826	-0.134933	0.000101	0.990855	-0.750168	0.653298	-0.102223	-0.647334	-0.757101	-0.088075
506	1048857997													-3.611937	-6.725756	-0.941057	-0.147082	0.013801	0.989028	-0.766211	0.630756	-0.122748	-0.625529	-0.775859	-0.082198
507	1048874664													-3.435754	-6.498181	-4.857715	-0.157834	0.023376	0.987189	-0.773193	0.618913	-0.138276	-0.614216	-0.785112	-0.079611
508	1048891331													-3.312440	-5.467756	-5.282979	-0.171073	0.031994	0.984739	-0.773860	0.614249	-0.154395	-0.609815	-0.788463	-0.080323
509	1048907998													-2.963066	-3.829323	-5.798577	-0.184073	0.041701	0.982027	-0.769763	0.615163	-0.170409	-0.611213	-0.787296	-0.081135
510	1048924665													-3.023902	-2.601754	-5.842953	-0.197366	0.053721	0.978857	-0.760146	0.622138	-0.187412	-0.619052	-0.781063	-0.081953
511	1048941332													-3.341834	-2.891122	-5.684983	-0.207897	0.067013	0.975853	-0.744806	0.635863	-0.202340	-0.634068	-0.768887	-0.082283
512	1048957999													-3.336658	-3.684920	-5.733546	-0.215074	0.082241	0.973129	-0.722827	0.656650	-0.215249	-0.656707	-0.749698	-0.081783
513	1048974666													-3.118011	-3.428056	-4.720309	-0.220633	0.098683	0.970352	-0.694570	0.682560	-0.227342	-0.684758	-0.724137	-0.082053
514	1048991333													-3.099732	-2.563376	-3.658784	-0.223087	0.113375	0.968183	-0.661310	0.712098	-0.235765	-0.716171	-0.692865	-0.083884
515	1049008000													-3.077926	-1.978279	-2.813979	-0.222788	0.125650	0.966736	-0.622436	0.744883	-0.240258	-0.750293	-0.655257	-0.087742
516	1049024667													-2.906961	-1.676533	-1.986665	-0.217861	0.132252	0.966978	-0.577948	0.780897	-0.237014	-0.786456	-0.610499	-0.093693
517	1049041334													-2.672197	-0.658202	-0.576902	-0.210213	0.132232	0.968672	-0.527443	0.818911	-0.226249	-0.823174	-0.558480	-0.102401
518	1049058001													-2.570672	0.186247	0.420750	-0.201273	0.124404	0.971603	-0.471659	0.857033	-0.207441	-0.858503	-0.500018	-0.113822
519	1049074668													-2.216972	-0.006984	0.839750	-0.194291	0.112186	0.974508	-0.409932	0.893249	-0.184561	-0.891183	-0.435340	-0.127562
520	1049091335													-1.622328	0.062803	1.663207	-0.191931	0.099323	0.976369	-0.343284	0.925225	-0.161602	-0.919412	-0.366188	-0.143484
521	1049108002													-0.981214	0.021707	2.407220	-0.194066	0.088964	0.976946	-0.273269	0.951557	-0.140936	-0.942158	-0.294320	-0.160353
522	1049124669													-0.460343	0.757709	3.099551	-0.199251	0.081974	0.976514	-0.201483	0.971778	-0.122688	-0.959012	-0.221197	-0.177112
523	1049141336													0.172735	2.013932	4.055624	-0.205827	0.076154	0.975621	-0.129621	0.986061	-0.104315	-0.969966	-0.147932	-0.193087
524	1049158003													0.881646	3.109975	4.722381	-0.212533	0.071220	0.974555	-0.058910	0.994592	-0.085531	-0.975377	-0.075589	-0.207188
525	1049174670													1.937019	3.987823	4.841192	-0.218456	0.067976	0.973476	0.008834	0.997668	-0.067683	-0.975807	-0.006186	-0.218547
526	1049191337													3.138894	5.084961	4.744630	-0.222041	0.071398	0.972420	0.072013	0.995792	-0.056671	-0.972374	0.057444	-0.226249
527	1049208004													3.174129	5.787066	3.924581	-0.221365	0.083160	0.971639	0.130284	0.989948	-0.055044	-0.966449	0.114404	-0.229974
528	1049224671													1.968661	6.463568	2.339269	-0.217544	0.103397	0.970558	0.183700	0.980940	-0.063328	-0.958608	0.164515	-0.232392
529	1049241338													0.528573	7.797121	0.871364	-0.213207	0.127559	0.968644	0.230303	0.970064	-0.077054	-0.949475	0.206653	-0.236201
530	1049258005													0.449647	9.233585	-0.613145	-0.208866	0.153520	0.965819	0.268401	0.958676	-0.094340	-0.940391	0.239523	-0.241440
531	1049274672													1.464839	9.372429	-1.911195	-0.201386	0.183787	0.962115	0.296397	0.947625	-0.118978	-0.933591	0.261208	-0.245312
532	1049291339													1.355712	10.735723	-3.257460	-0.191340	0.218091	0.956987	0.311602	0.938061	-0.151477	-0.930749	0.269215	-0.247447
533	1049308006													1.104677	11.999057	-4.333809	-0.180985	0.252477	0.950526	0.313831	0.930786	-0.187479	-0.932070	0.264373	-0.247693
534	1049324673													2.075554	12.258621	-4.764179	-0.171846	0.285804	0.942754	0.304043	0.925658	-0.225200	-0.937031	0.247938	-0.245968
535	1049341340													3.005274	12.633331	-4.592510	-0.164518	0.315289	0.934626	0.282708	0.922857	-0.261555	-0.944992	0.221196	-0.240962
536	1049358007													2.925080	11.239222	-3.228629	-0.159638	0.337972	0.927519	0.251522	0.922484	-0.292847	-0.954595	0.186541	-0.232271
537	1049374674													-6.759157	-13.232470	10.530056	-0.168740	0.328382	0.929350	0.227294	0.930422	-0.287492	-0.959095	0.162725	-0.231639
538	1049391341													9.620004	-9.106743	9.546242	-0.167761	0.349295	0.921873	0.226432	0.923777	-0.308811	-0.959471	0.156935	-0.234065
539	1049408008													6.707224	22.278065	-4.042476	-0.171658	0.362952	0.915860	0.195617	0.923705	-0.329397	-0.965540	0.122614	-0.229561
540	1049424675													-5.010376	8.138868	1.366923	-0.177607	0.363268	0.914600	0.151235	0.928411	-0.339385	-0.972411	0.078042	-0.219831
541	1049441342													-4.614811	-2.657679	0.216770	-0.187725	0.371600	0.909215	0.133565	0.926732	-0.351182	-0.973098	0.055513	-0.223604
542	1049458009													-0.467171	9.866413	1.466285	-0.202154	0.374053	0.905107	0.107267	0.927084	-0.359177	-0.973462	0.024479	-0.227538
543	1049474676													2.365272	-0.379135	-1.503100	-0.208605	0.371073	0.904870	0.081289	0.928602	-0.362065	-0.974616	-0.001972	-0.223875
544	1049491343													0.348767	5.481014	0.338918	-0.217971	0.371440	0.902508	0.059067	0.928069	-0.367695	-0.974166	-0.026838	-0.224232
545	1049508010													-0.233995	3.520546	0.008321	-0.226124	0.364692	0.903254	0.038812	0.929908	-0.365737	-0.973325	-0.047645	-0.224429
546	1049524677													0.101354	2.490348	0.076863	-0.234985	0.352014	0.906018	0.019809	0.933659	-0.357615	-0.971797	-0.066087	-0.226369
547	1049541344													-0.221995	0.932385	0.028346	-0.243126	0.340494	0.908269	0.003280	0.936649	-0.350255	-0.969989	-0.082177	-0.228840
548	1049558011													-1.248728	0.052611	0.260197	-0.250576	0.334591	0.908439	-0.009807	0.937450	-0.347981	-0.968047	-0.096104	-0.231621
549	1049574678													-0.616579	0.915332	0.987207	-0.256601	0.331280	0.907970	-0.022382	0.937136	-0.348247	-0.966258	-0.109682	-0.233055
550	1049591345													-0.365440	0.906462	0.334794	-0.260534	0.328483	0.907866	-0.034262	0.936603	-0.348713	-0.964857	-0.121957	-0.232763
551	1049608012													-0.452699	1.176029	-0.008810	-0.264420	0.325829	0.907699	-0.044774	0.936036	-0.349044	-0.963368	-0.132935	-0.232918
552	1049624679													-0.754154	0.787128	0.325058	-0.267536	0.322021	0.908145	-0.054429	0.935945	-0.347913	-0.962009	-0.142509	-0.232872
553	1049641346													-1.025470	0.392192	0.591483	-0.269473	0.317539	0.909150	-0.064007	0.936079	-0.345917	-0.960879	-0.151407	-0.231923
554	1049658013													-1.188702	0.382978	0.154515	-0.270277	0.314093	0.910107	-0.073366	0.935821	-0.344755	-0.959983	-0.159950	-0.229888
555	1049674680													-0.703765	0.655419	0.040282	-0.270852	0.310090	0.911309	-0.082882	0.935667	-0.343012	-0.959046	-0.168437	-0.227727
556	1049691347													-0.295957	0.922489	0.287953	-0.271673	0.303532	0.913270	-0.092951	0.936249	-0.338820	-0.957890	-0.176938	-0.226140
557	1049708014													-0.677543	0.469722	0.343768	-0.272629	0.294311	0.915999	-0.103736	0.937522	-0.332101	-0.956510	-0.185563	-0.225065
558	1049724681													-1.016998	-0.072237	0.173450	-0.273618	0.284444	0.918817	-0.115299	0.938683	-0.324930	-0.954903	-0.194845	-0.224045
559	1049741348													-1.392309	-0.614951	0.065951	-0.274218	0.275914	0.921236	-0.127722	0.939021	-0.319259	-0.953148	-0.205209	-0.222256
560	1049758015													-1.218486	-0.532778	0.207903	-0.274739	0.269606	0.922947	-0.140955	0.938221	-0.316026	-0.951131	-0.216919	-0.219764
561	1049774682													-0.864449	-0.007535	0.337413	-0.275341	0.264882	0.924135	-0.154746	0.936544	-0.314544	-0.948810	-0.229614	-0.216880
562	1049791349													-0.518747	0.556268	0.559499	-0.276227	0.259990	0.925259	-0.168829	0.934620	-0.313022	-0.946148	-0.242676	-0.214274
563	1049808016													-0.438601	0.860829	0.487762	-0.277352	0.253303	0.926776	-0.183089	0.933008	-0.309798	-0.943162	-0.255605	-0.212395
564	1049824683													-0.464747	1.050160	0.334490	-0.278786	0.244274	0.928767	-0.197278	0.931918	-0.304319	-0.939872	-0.268065	-0.211615
565	1049841350													-0.629678	0.832779	0.397717	-0.280012	0.233082	0.931271	-0.211483	0.931269	-0.296670	-0.936412	-0.280019	-0.211473
566	1049858017													-0.806194	0.349972	0.488793	-0.280970	0.221215	0.933874	-0.225507	0.930611	-0.288289	-0.932847	-0.291595	-0.211588
567	1049874684													-0.772021	0.018140	0.555865	-0.281534	0.209848	0.936324	-0.239522	0.929535	-0.280346	-0.929176	-0.303197	-0.211433
568	1049891351													-0.666488	-0.275651	0.562393	-0.281692	0.199780	0.938476	-0.253974	0.927674	-0.273713	-0.925282	-0.315451	-0.210579
569	1049908018													-0.937530	-0.396739	0.522572	-0.281438	0.190649	0.940449	-0.269582	0.924884	-0.268169	-0.920933	-0.329001	-0.208902
570	1049924685													-1.056966	-0.705945	0.671187	-0.280683	0.181887	0.942409	-0.286865	0.921101	-0.263213	-0.915929	-0.344224	-0.206361
571	1049941352													-0.873988	-0.792105	0.929225	-0.280105	0.173664	0.944130	-0.305765	0.916138	-0.259229	-0.909972	-0.361293	-0.203514
572	1049958019													-0.224845	-0.789578	1.029043	-0.279497	0.165411	0.945791	-0.326607	0.909927	-0.255656	-0.902889	-0.380357	-0.200297
573	1049974686													-0.419498	-0.886483	1.142057	-0.278583	0.157599	0.947393	-0.349281	0.902272	-0.252800	-0.894648	-0.401332	-0.196312
574	1049991353													-0.401836	-1.117058	1.923041	-0.277193	0.150143	0.949011	-0.373299	0.893290	-0.250363	-0.885332	-0.423663	-0.191566
575	1050008020													-0.543594	-1.564064	2.399667	-0.274318	0.142632	0.951003	-0.399053	0.882887	-0.247523	-0.874932	-0.447401	-0.185274
576	1050024687													-0.710115	-1.883457	2.224998	-0.270427	0.134894	0.953243	-0.426438	0.870923	-0.244221	-0.863146	-0.472543	-0.177997
577	1050041354													-0.464418	-2.427973	2.475384	-0.264798	0.126397	0.955984	-0.455828	0.857213	-0.239597	-0.849767	-0.499209	-0.169373
578	1050058021													-0.895702	-4.102751	3.719868	-0.255895	0.118879	0.959367	-0.487718	0.840973	-0.234299	-0.834655	-0.527857	-0.157221
579	1050074688													-0.726302	-5.134036	3.352534	-0.248669	0.110967	0.962211	-0.520761	0.822300	-0.229414	-0.816684	-0.558130	-0.146693
580	1050091355													0.328805	-5.942392	3.525517	-0.239506	0.099822	0.965750	-0.556217	0.801181	-0.220753	-0.795776	-0.590038	-0.136365
581	1050108022													0.182965	-8.350423	3.318789	-0.227686	0.085065	0.970012	-0.593432	0.777680	-0.207492	-0.772009	-0.622879	-0.126587
582	1050124689													0.321734	-10.367763	2.759989	-0.213845	0.064888	0.974710	-0.630266	0.753170	-0.188416	-0.746348	-0.654618	-0.120164
583	1050141356													-0.691569	-12.196946	-0.604358	-0.195611	0.038402	0.979929	-0.665388	0.728844	-0.161385	-0.720413	-0.683602	-0.117018
584	1050158023													-1.779386	-11.066709	-3.652221	-0.186953	0.015628	0.982245	-0.696428	0.703084	-0.143739	-0.692847	-0.710935	-0.120560
585	1050174690													-4.430422	-7.850087	-3.415129	-0.203806	0.018868	0.978830	-0.721094	0.673361	-0.163121	-0.662183	-0.739073	-0.123629
586	1050191357													-4.791792	-3.223938	1.305773	-0.222203	0.022583	0.974739	-0.747160	0.638346	-0.185113	-0.626401	-0.769419	-0.124969
587	1050208024													-3.275962	-7.259641	2.283669	-0.224997	0.026913	0.973988	-0.769026	0.608916	-0.194475	-0.598311	-0.792778	-0.116307
588	1050224691													-2.476772	-7.915831	-2.512585	-0.219255	0.027789	0.975272	-0.777730	0.598590	-0.191901	-0.589121	-0.800573	-0.109632
589	1050241358													-2.658370	-6.845381	-4.375362	-0.213733	0.021004	0.976666	-0.778848	0.599818	-0.183342	-0.589673	-0.799861	-0.111842
590	1050258025													-2.212995	-5.202216	-5.303968	-0.210553	0.014508	0.977475	-0.775406	0.606432	-0.176027	-0.595326	-0.795003	-0.116436
591	1050274692													-2.189893	-2.619222	-6.689558	-0.208244	0.012135	0.978002	-0.766391	0.619232	-0.170869	-0.607684	-0.785114	-0.119652
592	1050291359													-2.546796	-2.638579	-8.046831	-0.207548	0.013969	0.978125	-0.750064	0.639596	-0.168290	-0.627955	-0.768585	-0.122269
593	1050308026													-2.423498	-3.631160	-7.551671	-0.210352	0.021031	0.977400	-0.724967	0.667378	-0.170384	-0.655878	-0.744423	-0.125137
594	1050324693													-2.541896	-3.693951	-6.175609	-0.216110	0.032151	0.975840	-0.691774	0.700269	-0.176272	-0.689018	-0.713155	-0.129093
595	1050341360													-2.758760	-3.810749	-5.527041	-0.222916	0.045560	0.973772	-0.650040	0.737458	-0.183311	-0.726468	-0.673854	-0.134775
596	1050358027													-2.367292	-3.473254	-4.733201	-0.227902	0.057669	0.971975	-0.599162	0.778560	-0.186681	-0.767506	-0.624915	-0.142882
597	1050374694													-1.203841	-2.718755	-2.747613	-0.228287	0.062687	0.971574	-0.540561	0.821815	-0.180038	-0.809740	-0.566295	-0.153723
598	1050391361													0.534379	-1.088442	0.091374	-0.223798	0.059163	0.972838	-0.476346	0.864180	-0.162137	-0.850299	-0.499693	-0.165220
599	1050408028													0.945471	-0.320573	2.540564	-0.217060	0.049019	0.974927	-0.406905	0.903288	-0.136011	-0.887307	-0.426225	-0.176122
600	1050424695													1.047616	1.073698	3.330472	-0.207910	0.030208	0.977681	-0.333549	0.937425	-0.099895	-0.919521	-0.346874	-0.184824
601	1050441362													1.169254	1.939011	3.384590	-0.201934	0.006897	0.979375	-0.255140	0.965078	-0.059403	-0.945582	-0.261873	-0.193123
602	1050458029													1.898024	2.376812	4.484289	-0.201745	-0.010656	0.979380	-0.173250	0.984561	-0.024976	-0.963993	-0.174717	-0.200476
603	1050474696													2.729238	2.562189	5.089667	-0.204433	-0.017215	0.978729	-0.090876	0.995861	-0.001465	-0.974653	-0.089243	-0.205151
604	1050491363													2.979742	4.042813	5.744503	-0.206906	-0.013608	0.978266	-0.010149	0.999879	0.011762	-0.978308	-0.007495	-0.207020
605	1050508030													3.123284	5.913212	5.532177	-0.206214	-0.003127	0.978502	0.066295	0.997653	0.017160	-0.976258	0.068408	-0.205523
606	1050524697													3.218438	7.501995	5.252562	-0.201237	0.015035	0.979427	0.136231	0.990595	0.012784	-0.970023	0.136001	-0.201392
607	1050541364													2.168544	10.434280	4.140755	-0.192239	0.038387	0.980597	0.198546	0.980092	0.000556	-0.961053	0.194800	-0.196034
608	1050558031													0.159831	12.601720	1.051072	-0.179444	0.063575	0.981712	0.250882	0.967871	-0.016821	-0.951240	0.243276	-0.189628
609	1050574698													-1.628192	13.813063	-3.028660	-0.164675	0.091995	0.982049	0.289894	0.956182	-0.040961	-0.942785	0.277945	-0.184128
610	1050591365													-2.795466	16.098724	-6.509443	-0.152650	0.116895	0.981343	0.312025	0.947891	-0.064374	-0.937731	0.296376	-0.181170
611	1050608032													-2.978802	17.460732	-7.496393	-0.147694	0.131452	0.980259	0.314867	0.945810	-0.079392	-0.937574	0.296925	-0.181080
612	1050624699													-1.683455	14.948712	-5.919250	-0.148422	0.138292	0.979207	0.300691	0.949603	-0.088534	-0.942102	0.281298	-0.182525
613	1050641366													-0.904488	12.651614	-4.087074	-0.150866	0.143855	0.978031	0.273460	0.956821	-0.098552	-0.949978	0.252584	-0.183690
614	1050658033													-2.042263	4.947888	0.838292	-0.155466	0.143290	0.977394	0.239842	0.965293	-0.103366	-0.958283	0.218350	-0.184437
615	1050674700													9.546699	-27.371557	18.883863	-0.165945	0.115429	0.979356	0.229569	0.970362	-0.075470	-0.959041	0.212306	-0.187526
616	1050691367													4.338481	11.481782	2.164686	-0.164250	0.146451	0.975487	0.217723	0.969910	-0.108955	-0.962091	0.194490	-0.191193
617	1050708034													-1.166009	20.817680	-4.124899	-0.167817	0.162896	0.972267	0.173198	0.975785	-0.133591	-0.970484	0.145976	-0.191966
618	1050724701													-8.302437	-3.843834	2.658210	-0.172499	0.167768	0.970617	0.135477	0.980065	-0.145324	-0.975649	0.106428	-0.191789
619	1050741368													-2.697644	3.775931	-2.340260	-0.183688	0.190803	0.964289	0.123430	0.977693	-0.169943	-0.975204	0.087806	-0.203142
620	1050758035													-0.714003	7.105762	0.998648	-0.193983	0.192914	0.961849	0.095992	0.979501	-0.177095	-0.976297	0.057976	-0.208525
621	1050774702													1.223084	2.560450	-0.425094	-0.200573	0.196301	0.959811	0.076020	0.979884	-0.184520	-0.976725	0.035955	-0.211462
622	1050791369													-0.424600	6.140382	0.331348	-0.208182	0.190866	0.959286	0.056089	0.981491	-0.183112	-0.976481	0.015684	-0.215034
623	1050808036													-0.894321	3.906703	-0.363701	-0.216011	0.174437	0.960682	0.038622	0.984668	-0.170108	-0.975627	0.000358	-0.219437
624	1050824703													-1.102452	1.169914	0.071184	-0.224475	0.154963	0.962080	0.023161	0.987845	-0.153709	-0.974205	-0.012221	-0.225335
625	1050841370													-0.954947	-0.432595	0.043400	-0.231724	0.140353	0.962603	0.009724	0.989822	-0.141981	-0.972733	-0.023540	-0.230731
626	1050858037													-0.337561	-0.775176	0.464431	-0.237874	0.133574	0.962068	-0.001806	0.990436	-0.137959	-0.971294	-0.034554	-0.235358
627	1050874704													-0.209773	-0.237196	1.134000	-0.243172	0.134017	0.960680	-0.012317	0.989903	-0.141211	-0.969905	-0.046171	-0.239066
628	1050891371													-0.628845	0.230102	0.281693	-0.246810	0.138643	0.959095	-0.022072	0.988652	-0.148596	-0.968812	-0.057844	-0.240949
629	1050908038													-0.936702	0.748743	-0.446729	-0.250300	0.144474	0.957328	-0.030866	0.987110	-0.157038	-0.967676	-0.068856	-0.242615
630	1050924705													-1.055141	0.775654	-0.141500	-0.253386	0.148595	0.955884	-0.039268	0.985738	-0.163645	-0.966568	-0.079001	-0.243937
631	1050941372													-0.703639	0.617359	0.558804	-0.255783	0.151996	0.954711	-0.047829	0.984363	-0.169531	-0.965550	-0.089026	-0.244513
632	1050958039													-0.693112	0.901529	0.617858	-0.257473	0.154736	0.953816	-0.056488	0.982997	-0.174719	-0.964633	-0.098864	-0.244354
633	1050974706													-0.790659	1.115414	0.462702	-0.258769	0.153658	0.953639	-0.065761	0.982173	-0.176100	-0.963698	-0.108282	-0.244051
634	1050991373													-0.901232	0.976119	0.142146	-0.260360	0.149248	0.953906	-0.075306	0.981832	-0.174172	-0.962570	-0.117182	-0.244390
635	1051008040													-0.824156	0.686529	0.169285	-0.261857	0.142701	0.954498	-0.084767	0.981785	-0.170035	-0.961377	-0.125435	-0.244991
636	1051024707													-0.751396	0.318574	0.213900	-0.262849	0.136005	0.955203	-0.093903	0.981709	-0.165618	-0.960256	-0.133229	-0.245270
637	1051041374													-0.809666	-0.008813	0.211655	-0.263447	0.130688	0.955781	-0.102567	0.981370	-0.162458	-0.959206	-0.140831	-0.245134
638	1051058041													-0.699262	0.201837	0.238356	-0.263744	0.126754	0.956228	-0.111136	0.980734	-0.160655	-0.958169	-0.148644	-0.244576
639	1051074708													-0.518871	0.542634	0.282115	-0.263792	0.122743	0.956738	-0.119754	0.980029	-0.158750	-0.957117	-0.156450	-0.243825
640	1051091375													-0.468476	0.497626	0.290283	-0.263836	0.117877	0.957338	-0.128462	0.979369	-0.155993	-0.955975	-0.164138	-0.243251
641	1051108042													-0.705663	0.543646	0.309419	-0.264002	0.111251	0.958085	-0.137609	0.978820	-0.151577	-0.954655	-0.171858	-0.243101
642	1051124709													-0.819280	0.351837	0.162251	-0.264275	0.102679	0.958966	-0.147374	0.978340	-0.145367	-0.953121	-0.179744	-0.243419
643	1051141376													-0.840858	0.069429	0.054023	-0.264493	0.092353	0.959955	-0.158151	0.977774	-0.137642	-0.951331	-0.188224	-0.244009
644	1051158043													-0.934219	-0.335714	0.095346	-0.264621	0.081906	0.960868	-0.169955	0.976830	-0.130072	-0.949258	-0.197724	-0.244569
645	1051174710													-0.890196	-0.677672	0.094664	-0.264946	0.072896	0.961504	-0.182620	0.975299	-0.124263	-0.946812	-0.208513	-0.245090
646	1051191377													-0.727090	-0.448319	0.227634	-0.265525	0.066094	0.961836	-0.195917	0.973132	-0.120955	-0.943988	-0.220557	-0.245442
647	1051208044													-0.718693	-0.130178	0.437382	-0.266195	0.060711	0.962005	-0.209821	0.970434	-0.119303	-0.940806	-0.233607	-0.245587
648	1051224711													-0.644368	0.099033	0.552265	-0.266689	0.055484	0.962184	-0.224469	0.967311	-0.117995	-0.937278	-0.247449	-0.245517
649	1051241378													-0.848626	-0.040031	0.473346	-0.266948	0.049384	0.962445	-0.240270	0.963739	-0.116093	-0.933279	-0.262237	-0.245403
