// Start Time: Unknown
// Update Rate: 100.0Hz
//Filter Profile: human (46.1)
// Option Flags: AHS Disabled ICC Disabled
// Firmware Version: 4.0.2
PacketCounter	SampleTimeFine	Year	Month	Day	Second	UTC_Nano	UTC_Year	UTC_Month	UTC_Day	UTC_Hour	UTC_Minute	UTC_Second	UTC_Valid	Acc_X	Acc_Y	Acc_Z	Mat[1][1]	Mat[1][2]	Mat[1][3]	Mat[2][1]	Mat[2][2]	Mat[2][3]	Mat[3][1]	Mat[3][2]	Mat[3][3]
1	1040424495													-0.358732	0.287804	-0.348111	0.183913	0.982513	0.029074	0.162798	-0.001277	-0.986659	-0.969367	0.186192	-0.160186
2	1040441162													-0.533850	-0.133412	-0.662376	0.188502	0.981304	0.038841	0.163159	0.007708	-0.986570	-0.968425	0.192308	-0.158656
3	1040457829													-0.500320	0.565448	-0.837430	0.185270	0.981665	0.044823	0.162745	0.014332	-0.986564	-0.969118	0.190075	-0.157105
4	1040474496													-0.055303	1.662777	-0.886578	0.176987	0.983070	0.047420	0.161910	0.018442	-0.986633	-0.970804	0.182299	-0.155904
5	1040491163													0.837929	2.096832	-0.046095	0.166701	0.984895	0.046824	0.160906	0.019679	-0.986774	-0.972790	0.172031	-0.155195
6	1040507830													1.418301	1.590843	2.075514	0.159493	0.986049	0.047634	0.158866	0.021986	-0.987055	-0.974332	0.164996	-0.153143
7	1040524497													-0.099460	1.778886	5.301827	0.146673	0.987979	0.048822	0.151639	0.026315	-0.988086	-0.977493	0.152329	-0.145957
8	1040541164													-1.765007	3.892386	6.327169	0.128295	0.990508	0.049341	0.139572	0.031223	-0.989720	-0.981866	0.133862	-0.134241
9	1040557831													-0.385829	3.905200	4.331100	0.148096	0.987985	0.044184	0.127079	0.025295	-0.991570	-0.980774	0.152463	-0.121806
10	1040574498													-1.399152	-2.551967	1.988073	0.188373	0.981472	0.035042	0.115101	0.013372	-0.993264	-0.975329	0.191138	-0.110450
11	1040591165													-0.908051	-6.128750	-0.980298	0.197794	0.980031	0.020430	0.104859	-0.000432	-0.994487	-0.974619	0.198846	-0.102851
12	1040607832													-0.563528	-3.516559	-3.128526	0.174010	0.984732	0.004901	0.098587	-0.012469	-0.995050	-0.979797	0.173632	-0.099251
13	1040624499													0.269720	-0.664247	-3.156108	0.150152	0.988632	-0.007809	0.095312	-0.022336	-0.995197	-0.984058	0.148686	-0.097583
14	1040641166													0.914024	-2.246635	-1.956241	0.147086	0.989011	-0.014951	0.092338	-0.028779	-0.995312	-0.984804	0.145016	-0.095556
15	1040657833													1.120921	-4.501263	-2.087323	0.156207	0.987575	-0.017201	0.087297	-0.031151	-0.995695	-0.983859	0.154033	-0.091078
16	1040674500													1.282193	-4.318947	-2.075348	0.155482	0.987698	-0.016687	0.079367	-0.029328	-0.996414	-0.984645	0.153600	-0.082951
17	1040691167													1.296377	-3.475174	-0.360487	0.141462	0.989846	-0.013932	0.070634	-0.024130	-0.997210	-0.987421	0.140083	-0.073330
18	1040707834													1.157394	-2.342550	3.212951	0.120193	0.992690	-0.010977	0.064602	-0.018855	-0.997733	-0.990646	0.119211	-0.066396
19	1040724501													1.521751	-0.167240	5.004644	0.106615	0.994248	-0.010173	0.063836	-0.017055	-0.997815	-0.992249	0.105733	-0.065287
20	1040741168													0.915739	1.896988	3.657373	0.102314	0.994714	-0.008765	0.067425	-0.015726	-0.997600	-0.992464	0.101477	-0.068678
21	1040757835													-0.263350	2.548713	0.996358	0.113001	0.993573	-0.006657	0.073082	-0.014993	-0.997213	-0.990903	0.112200	-0.074306
22	1040774502													-0.867411	1.355977	-0.667236	0.124216	0.992251	-0.003033	0.080488	-0.013123	-0.996669	-0.988985	0.123558	-0.081494
23	1040791169													-1.274511	-0.649674	-0.766941	0.127744	0.991803	0.002825	0.088839	-0.008606	-0.996009	-0.987820	0.127485	-0.089211
24	1040807836													-1.425496	-1.281377	-0.770839	0.132487	0.991147	0.008682	0.096083	-0.004125	-0.995365	-0.986517	0.132707	-0.095779
25	1040824503													-1.595192	-1.113342	-1.538945	0.136034	0.990626	0.012475	0.101167	-0.001364	-0.994868	-0.985525	0.136598	-0.100405
26	1040841170													-1.501587	-0.761154	-1.631158	0.135286	0.990723	0.012896	0.104438	-0.001316	-0.994531	-0.985287	0.135893	-0.103647
27	1040857837													-0.955847	-0.644638	-1.179294	0.136731	0.990553	0.010438	0.106537	-0.004228	-0.994300	-0.984863	0.137064	-0.106108
28	1040874504													-0.572186	-0.650475	-1.478568	0.144123	0.989546	0.005115	0.107980	-0.010588	-0.994097	-0.983651	0.143825	-0.108377
29	1040891171													-0.436965	-0.378110	-2.274076	0.149939	0.988694	-0.001615	0.109429	-0.018219	-0.993828	-0.982621	0.148837	-0.110923
30	1040907838													-0.558764	0.095286	-2.694885	0.147585	0.989006	-0.009268	0.111038	-0.025880	-0.993479	-0.982797	0.145594	-0.113637
31	1040924505													-0.670113	0.197839	-2.051481	0.140445	0.989932	-0.017624	0.112652	-0.033662	-0.993064	-0.983659	0.137486	-0.116245
32	1040941172													-0.682160	0.332136	-1.257043	0.136357	0.990323	-0.025848	0.114190	-0.041630	-0.992586	-0.984057	0.132394	-0.118762
33	1040957839													-0.633835	0.612324	-1.009378	0.137146	0.989932	-0.035014	0.114990	-0.051020	-0.992056	-0.983854	0.132030	-0.120830
34	1040974506													-0.391359	0.954988	-1.024361	0.138772	0.989322	-0.044555	0.114780	-0.060755	-0.991531	-0.983650	0.132483	-0.121985
35	1040991173													-0.233408	0.990314	-0.740142	0.139560	0.988743	-0.053954	0.113207	-0.070061	-0.991098	-0.983721	0.132210	-0.121710
36	1041007840													-0.088888	0.834031	-0.501568	0.140360	0.988124	-0.062533	0.110146	-0.078350	-0.990822	-0.983955	0.132184	-0.119835
37	1041024507													0.070429	0.906716	-0.408459	0.140112	0.987672	-0.069810	0.106254	-0.085097	-0.990691	-0.984418	0.131390	-0.116867
38	1041041174													0.001700	1.145612	-0.171117	0.137449	0.987660	-0.075066	0.102316	-0.089537	-0.990714	-0.985210	0.128492	-0.113360
39	1041057841													-0.020902	1.388821	0.238063	0.135428	0.987656	-0.078706	0.098567	-0.092474	-0.990824	-0.985872	0.126428	-0.109874
40	1041074508													-0.350209	1.157215	0.629580	0.138201	0.987000	-0.082043	0.094926	-0.095657	-0.990878	-0.985845	0.129152	-0.106912
41	1041091175													-0.643856	0.660632	0.830860	0.146073	0.985565	-0.085579	0.091200	-0.099554	-0.990844	-0.985061	0.136931	-0.104426
42	1041107842													-1.000656	-0.040216	0.608216	0.157457	0.983489	-0.089199	0.087306	-0.103836	-0.990755	-0.983659	0.148213	-0.102214
43	1041124509													-1.063279	-0.426732	-0.125690	0.168249	0.981380	-0.092656	0.083771	-0.107891	-0.990627	-0.982179	0.158910	-0.100363
44	1041141176													-0.923827	-0.310732	-0.626223	0.173851	0.980045	-0.096369	0.081626	-0.111863	-0.990365	-0.981383	0.164309	-0.099445
45	1041157843													-0.886702	0.324351	-0.658781	0.174347	0.979689	-0.099061	0.081900	-0.114681	-0.990020	-0.981272	0.164494	-0.100231
46	1041174510													-1.244001	0.948984	-0.462158	0.172908	0.979711	-0.101338	0.084456	-0.117257	-0.989504	-0.981310	0.162534	-0.103017
47	1041191177													-1.156060	0.147908	0.411902	0.173110	0.979259	-0.105283	0.088526	-0.121935	-0.988582	-0.980916	0.161813	-0.107798
48	1041207844													0.457619	-0.716753	1.788425	0.173208	0.978130	-0.115151	0.097171	-0.133319	-0.986298	-0.980080	0.159645	-0.118138
49	1041224511													1.381598	1.601465	3.615122	0.140491	0.982249	-0.124292	0.115277	-0.140911	-0.983288	-0.983348	0.123815	-0.133028
50	1041241178													1.519631	4.369955	3.533959	0.115792	0.985926	-0.120589	0.133673	-0.135769	-0.981681	-0.984238	0.097551	-0.147513
51	1041257845													0.255225	2.063535	2.727730	0.134380	0.984681	-0.111112	0.145526	-0.130524	-0.980707	-0.980186	0.115618	-0.160837
52	1041274512													-0.005091	-1.015668	1.550153	0.151304	0.983549	-0.098683	0.154611	-0.122151	-0.980395	-0.976321	0.133080	-0.170549
53	1041291179													0.127448	-1.361767	0.962580	0.145233	0.984872	-0.094521	0.159665	-0.117611	-0.980140	-0.976430	0.127257	-0.174330
54	1041307846													0.034675	-0.177437	0.866617	0.132979	0.986924	-0.091096	0.161176	-0.112223	-0.980525	-0.977926	0.115706	-0.173992
55	1041324513													0.107354	0.613354	2.117742	0.118851	0.988875	-0.089442	0.161365	-0.108120	-0.980954	-0.979712	0.102155	-0.172420
56	1041341180													0.346515	-0.870171	2.617666	0.127705	0.987971	-0.087207	0.161655	-0.107485	-0.980976	-0.978549	0.111178	-0.173437
57	1041357847													0.843772	-3.025858	0.575750	0.153663	0.984542	-0.084046	0.162323	-0.109052	-0.980693	-0.974699	0.137054	-0.176571
58	1041374514													1.318492	-4.299248	-1.753277	0.168930	0.982115	-0.083142	0.164090	-0.111201	-0.980158	-0.971873	0.151935	-0.179940
59	1041391181													1.430948	-3.650288	-2.208208	0.163673	0.982941	-0.083895	0.167361	-0.111475	-0.979573	-0.972215	0.146289	-0.182751
60	1041407848													1.277074	-1.926776	-1.610842	0.152878	0.984582	-0.085005	0.171715	-0.111173	-0.978854	-0.973212	0.135049	-0.186063
61	1041424515													0.630437	-0.821757	-0.979712	0.145813	0.985716	-0.084274	0.175367	-0.109589	-0.978385	-0.973645	0.127883	-0.188842
62	1041441182													0.679706	-0.547406	-0.436460	0.143026	0.986263	-0.082638	0.176275	-0.107546	-0.978448	-0.973895	0.125376	-0.189235
63	1041457849													0.505112	-0.378996	0.349055	0.139473	0.986914	-0.080924	0.174055	-0.104884	-0.979134	-0.974809	0.122478	-0.186406
64	1041474516													0.734886	0.295717	0.452261	0.134185	0.987736	-0.079825	0.169301	-0.102220	-0.980249	-0.976387	0.118020	-0.180941
65	1041491183													1.166486	0.609852	-0.270396	0.134808	0.987811	-0.077820	0.163305	-0.099612	-0.981534	-0.977322	0.119611	-0.174743
66	1041507850													1.484373	-0.078833	-0.900991	0.139529	0.987358	-0.075203	0.157103	-0.097057	-0.982801	-0.977676	0.125314	-0.168659
67	1041524517													1.629818	-1.309798	-1.323543	0.144705	0.986795	-0.072774	0.151436	-0.094768	-0.983914	-0.977818	0.131357	-0.163150
68	1041541184													1.501183	-1.883680	-1.869632	0.146917	0.986555	-0.071589	0.146663	-0.093300	-0.984777	-0.978215	0.134181	-0.158399
69	1041557851													1.267521	-1.536150	-2.029231	0.143653	0.986947	-0.072798	0.142651	-0.093444	-0.985352	-0.979293	0.131164	-0.154213
70	1041574518													1.009550	-0.891281	-1.835052	0.138136	0.987542	-0.075355	0.139166	-0.094683	-0.985732	-0.980587	0.125678	-0.150511
71	1041591185													0.598215	-0.394564	-1.669302	0.132585	0.988169	-0.077086	0.136435	-0.095228	-0.986061	-0.981737	0.120220	-0.147447
72	1041607852													0.177582	-0.022329	-1.448910	0.125922	0.988992	-0.077710	0.134892	-0.094676	-0.986327	-0.982826	0.113718	-0.145329
73	1041624519													0.054325	0.348679	-0.918877	0.119525	0.989781	-0.077760	0.135086	-0.093806	-0.986383	-0.983598	0.107393	-0.144918
74	1041641186													0.434649	0.718669	-0.563494	0.118400	0.990088	-0.075551	0.137289	-0.091678	-0.986279	-0.983429	0.106403	-0.146783
75	1041657853													1.041509	0.917019	-0.407771	0.120960	0.990002	-0.072564	0.140989	-0.089494	-0.985958	-0.982594	0.109031	-0.150404
76	1041674520													1.532303	0.791134	-0.228237	0.127259	0.989524	-0.068171	0.145623	-0.086624	-0.985540	-0.981121	0.115492	-0.155122
77	1041691187													1.932166	0.625665	-0.252843	0.136655	0.988676	-0.062015	0.150672	-0.082618	-0.985125	-0.979093	0.125279	-0.160256
78	1041707854													2.138554	0.594487	-0.383672	0.144744	0.987980	-0.054268	0.155861	-0.076926	-0.984779	-0.977116	0.134082	-0.165123
79	1041724521													2.173136	0.579470	-0.382020	0.153875	0.987145	-0.043215	0.161137	-0.068220	-0.984571	-0.974863	0.144537	-0.169563
80	1041741188													2.002820	0.376195	-0.776943	0.166674	0.985565	-0.029691	0.166252	-0.057771	-0.984390	-0.971895	0.159136	-0.173481
81	1041757855													1.261122	-0.140218	-1.022069	0.176315	0.984228	-0.014411	0.171273	-0.045092	-0.984191	-0.969319	0.171060	-0.176522
82	1041774522													0.336994	-0.153237	-0.584006	0.174847	0.984596	-0.000234	0.175272	-0.031359	-0.984020	-0.968870	0.172012	-0.178055
83	1041791189													-0.347571	0.927840	0.376831	0.164098	0.986386	0.010728	0.177388	-0.018810	-0.983961	-0.970363	0.163369	-0.178060
84	1041807856													-0.373353	2.130662	0.561482	0.159132	0.987089	0.018221	0.177888	-0.010514	-0.983995	-0.971099	0.159826	-0.177265
85	1041824523													0.132117	2.098283	-0.109221	0.159892	0.986872	0.022749	0.177966	-0.006151	-0.984017	-0.970960	0.161385	-0.176613
86	1041841190													1.106958	1.561822	0.320625	0.158425	0.987087	0.023696	0.178509	-0.005030	-0.983925	-0.971100	0.160108	-0.177001
87	1041857857													1.976793	0.761961	1.802942	0.156117	0.987449	0.023927	0.180158	-0.004649	-0.983627	-0.971170	0.157872	-0.178623
88	1041874524													-0.019304	1.096295	5.854892	0.138072	0.990058	0.026855	0.178350	0.001818	-0.983966	-0.974232	0.140647	-0.176325
89	1041891191													-0.791880	4.783676	8.616436	0.109698	0.993568	0.028098	0.171284	0.008949	-0.985181	-0.979096	0.112885	-0.169201
90	1041907858													0.347087	6.048588	5.864327	0.128025	0.991451	0.025172	0.163515	0.003932	-0.986533	-0.978198	0.130417	-0.161614
91	1041924525													-1.595822	-2.086947	3.097684	0.175643	0.984144	0.024692	0.156261	-0.003106	-0.987711	-0.971973	0.177343	-0.154329
92	1041941192													-0.460100	-7.446765	-0.892694	0.196975	0.980296	0.014866	0.150151	-0.015179	-0.988547	-0.968842	0.196952	-0.150183
93	1041957859													-0.143235	-4.393280	-3.352700	0.169962	0.985449	-0.001962	0.147216	-0.027359	-0.988726	-0.974392	0.167757	-0.149723
94	1041974526													0.519357	0.258516	-2.793557	0.136031	0.990588	-0.015165	0.146457	-0.035246	-0.988589	-0.979819	0.132258	-0.149874
95	1041991193													0.939944	-0.972681	-1.525599	0.143371	0.989418	-0.022267	0.143449	-0.043038	-0.988721	-0.979218	0.138560	-0.148101
96	1042007860													0.730146	-4.839827	-2.801674	0.165919	0.985831	-0.024672	0.137584	-0.047915	-0.989330	-0.976494	0.160754	-0.143584
97	1042024527													0.531151	-5.149445	-2.937077	0.160567	0.986669	-0.026491	0.128476	-0.047503	-0.990574	-0.978628	0.155650	-0.134391
98	1042041194													-0.102409	-2.959803	-0.154210	0.132914	0.990746	-0.027505	0.117032	-0.043245	-0.992186	-0.984194	0.128657	-0.121697
99	1042057861													-0.418170	-1.001564	3.234816	0.116783	0.992761	-0.028077	0.105965	-0.040564	-0.993542	-0.987488	0.113053	-0.109935
100	1042074528													0.192783	-0.254201	4.138025	0.117616	0.992525	-0.032571	0.099801	-0.044447	-0.994014	-0.988032	0.113661	-0.104282
101	1042091195													0.226896	0.194342	2.183800	0.126113	0.991198	-0.040274	0.099635	-0.053049	-0.993609	-0.987000	0.121294	-0.105448
102	1042107862													-0.260495	0.528599	-0.500527	0.134612	0.989644	-0.049847	0.102882	-0.063991	-0.992633	-0.985543	0.128492	-0.110430
103	1042124529													-0.340060	0.562093	-1.379105	0.131908	0.989560	-0.058069	0.108565	-0.072650	-0.991431	-0.985299	0.124473	-0.117014
104	1042141196													-0.493672	0.157596	-0.926331	0.128101	0.989735	-0.063363	0.115515	-0.078344	-0.990211	-0.985011	0.119528	-0.124365
105	1042157863													-0.482476	-0.693871	-0.864276	0.134692	0.988710	-0.065661	0.122188	-0.082331	-0.989086	-0.983325	0.125199	-0.131897
106	1042174530													-0.596643	-1.335587	-1.812482	0.143350	0.987453	-0.066231	0.127529	-0.084795	-0.988203	-0.981421	0.133213	-0.138085
107	1042191197													-0.529070	-1.016229	-2.093431	0.141874	0.987588	-0.067398	0.131299	-0.086259	-0.987583	-0.981138	0.131264	-0.141907
108	1042207864													-0.253287	-0.164208	-1.529008	0.132929	0.988664	-0.069812	0.133405	-0.087644	-0.987179	-0.982106	0.121912	-0.143543
109	1042224531													-0.010574	0.407558	-0.937297	0.128431	0.989062	-0.072539	0.133778	-0.089755	-0.986938	-0.982654	0.117049	-0.143842
110	1042241198													-0.141276	0.419753	-1.226617	0.132755	0.988265	-0.075554	0.132709	-0.093266	-0.986757	-0.982224	0.120970	-0.143533
111	1042257865													-0.395636	0.276008	-1.958165	0.137739	0.987208	-0.080298	0.130468	-0.098448	-0.986553	-0.981838	0.125411	-0.142359
112	1042274532													-0.311044	0.641530	-2.429096	0.134257	0.987104	-0.087178	0.127113	-0.104402	-0.986378	-0.982760	0.121347	-0.139491
113	1042291199													-0.171008	1.332682	-1.910191	0.123549	0.987661	-0.096232	0.122661	-0.111431	-0.986173	-0.984728	0.110037	-0.134914
114	1042307866													-0.196028	1.647617	-1.050868	0.119089	0.987186	-0.106217	0.117557	-0.120245	-0.985759	-0.985900	0.104906	-0.130370
115	1042324533													-0.010728	1.248693	-0.819681	0.128685	0.984933	-0.115532	0.112393	-0.130235	-0.985092	-0.985296	0.113782	-0.127459
116	1042341200													-0.445838	0.640392	-1.356452	0.140354	0.982355	-0.123613	0.107011	-0.139168	-0.984470	-0.984302	0.124946	-0.124655
117	1042357867													-0.563617	0.166115	-1.396392	0.146344	0.980473	-0.131365	0.101256	-0.146944	-0.983949	-0.984038	0.130694	-0.120783
118	1042374534													-0.253729	-0.261917	-0.695928	0.151808	0.978508	-0.139559	0.095009	-0.154987	-0.983337	-0.983833	0.136019	-0.116495
119	1042391201													-0.058261	-0.527592	0.331214	0.157797	0.976152	-0.149091	0.088480	-0.164352	-0.982425	-0.983499	0.141833	-0.112305
120	1042407868													0.442765	-0.036514	0.947254	0.158565	0.974524	-0.158621	0.083456	-0.173307	-0.981325	-0.983815	0.142366	-0.108811
121	1042424535													1.262101	0.859279	1.049247	0.154171	0.974026	-0.165843	0.081550	-0.179821	-0.980313	-0.984673	0.137611	-0.107155
122	1042441202													1.229509	1.431077	0.716787	0.151580	0.973986	-0.168447	0.083216	-0.182386	-0.979699	-0.984936	0.134486	-0.108697
123	1042457869													0.595843	1.687599	-0.086397	0.153055	0.974191	-0.165912	0.087254	-0.180556	-0.979687	-0.984358	0.135470	-0.112637
124	1042474536													-0.257202	1.613634	-0.423930	0.151304	0.974913	-0.163251	0.091147	-0.178209	-0.979762	-0.984276	0.133362	-0.115825
125	1042491203													-0.676130	0.105882	1.002719	0.145935	0.975532	-0.164442	0.094310	-0.179183	-0.979285	-0.984789	0.127403	-0.118151
126	1042507870													0.108191	1.724496	5.393388	0.125952	0.977413	-0.169705	0.104101	-0.183145	-0.977559	-0.986559	0.105459	-0.124817
127	1042524537													0.740516	3.704562	7.416994	0.106861	0.979271	-0.172070	0.117518	-0.184288	-0.975821	-0.987305	0.084056	-0.134775
128	1042541204													0.101383	2.688638	4.295991	0.146123	0.975860	-0.162312	0.126213	-0.181122	-0.975328	-0.981182	0.122032	-0.149632
129	1042557871													1.110313	-1.784195	1.434737	0.180350	0.971944	-0.150996	0.135272	-0.176563	-0.974950	-0.974256	0.155406	-0.163320
130	1042574538													-0.832597	-5.334463	0.642341	0.174354	0.973637	-0.147080	0.141382	-0.172573	-0.974797	-0.974480	0.149165	-0.167744
131	1042591205													-0.130581	-2.669743	-1.019333	0.155888	0.977473	-0.142284	0.142311	-0.164767	-0.976012	-0.977470	0.131900	-0.164790
132	1042607872													0.078793	0.884707	-1.624920	0.133025	0.980504	-0.144622	0.139728	-0.163015	-0.976679	-0.981214	0.109715	-0.158689
133	1042624539													-0.478402	0.261852	0.124735	0.127621	0.980947	-0.146482	0.138304	-0.163847	-0.976743	-0.982133	0.104393	-0.156579
134	1042641206													-0.804206	-2.677923	-0.110899	0.146578	0.977732	-0.150184	0.138613	-0.170627	-0.975537	-0.979439	0.122175	-0.160536
135	1042657873													-1.207271	-4.684723	-1.970676	0.163273	0.974087	-0.156515	0.141697	-0.180152	-0.973379	-0.976352	0.136749	-0.167439
136	1042674540													-0.308783	-4.003768	-2.641948	0.153644	0.974161	-0.165541	0.148446	-0.188384	-0.970812	-0.976912	0.124586	-0.173554
137	1042691207													0.863336	-2.091225	-0.664730	0.128508	0.975696	-0.177493	0.157446	-0.196780	-0.967723	-0.979130	0.096415	-0.178907
138	1042707874													1.486044	-0.686616	1.827679	0.115050	0.975748	-0.186223	0.165615	-0.203685	-0.964927	-0.979456	0.080174	-0.185033
139	1042724541													1.249115	-0.811117	2.534184	0.120071	0.974307	-0.190549	0.169375	-0.209228	-0.963087	-0.978210	0.083364	-0.190146
140	1042741208													0.672443	-1.014438	1.373880	0.128801	0.972956	-0.191749	0.167832	-0.211957	-0.962760	-0.977365	0.091823	-0.190594
141	1042757875													0.438850	-0.556712	0.119266	0.125335	0.972933	-0.194148	0.162389	-0.213170	-0.963425	-0.978734	0.089223	-0.184712
142	1042774542													0.938547	0.495302	-0.322306	0.116682	0.973082	-0.198736	0.155123	-0.215503	-0.964103	-0.980980	0.081665	-0.176093
143	1042791209													1.245148	0.943114	-0.816220	0.117150	0.971990	-0.203744	0.148007	-0.219953	-0.964217	-0.982023	0.082802	-0.169629
144	1042807876													1.434369	0.084846	-1.458599	0.127984	0.969601	-0.208550	0.142474	-0.226073	-0.963635	-0.981489	0.093616	-0.167076
145	1042824543													1.256398	-1.251627	-2.325054	0.139710	0.966416	-0.215690	0.138897	-0.234799	-0.962069	-0.980402	0.104452	-0.167036
146	1042841210													1.003357	-1.729068	-2.737474	0.141482	0.964205	-0.224260	0.137238	-0.243455	-0.960154	-0.980382	0.105068	-0.166770
147	1042857877													1.127968	-1.128844	-2.645081	0.134301	0.962572	-0.235411	0.136433	-0.253262	-0.957729	-0.981504	0.096506	-0.165340
148	1042874544													1.092131	-0.355531	-2.039537	0.125550	0.961434	-0.244707	0.136258	-0.261032	-0.955665	-0.982686	0.086640	-0.163776
149	1042891211													0.964082	0.165453	-1.417955	0.118580	0.960477	-0.251840	0.136823	-0.267016	-0.953930	-0.983473	0.078660	-0.163078
150	1042907878													0.751159	0.517106	-0.942306	0.114055	0.959962	-0.255859	0.138691	-0.270403	-0.952705	-0.983746	0.073176	-0.163979
151	1042924545													1.243637	0.783624	-0.892841	0.114399	0.959606	-0.257040	0.142074	-0.271883	-0.951785	-0.983223	0.072365	-0.167438
152	1042941212													1.819360	0.683586	-0.875008	0.120502	0.959357	-0.255173	0.146719	-0.271435	-0.951208	-0.981811	0.077184	-0.173464
153	1042957879													2.282724	0.370319	-1.085743	0.132374	0.959030	-0.250477	0.151989	-0.269352	-0.950973	-0.979478	0.087815	-0.181417
154	1042974546													2.416921	0.164441	-1.697822	0.144071	0.958795	-0.244858	0.157220	-0.266475	-0.950933	-0.976998	0.098505	-0.189133
155	1042991213													2.624505	0.246949	-1.996058	0.150013	0.959356	-0.239023	0.162278	-0.262372	-0.951224	-0.975275	0.103908	-0.195042
156	1043007880													2.478522	0.429336	-1.360233	0.153704	0.960566	-0.231708	0.167152	-0.256391	-0.952011	-0.973877	0.107597	-0.199968
157	1043024547													1.956062	0.487243	-0.303408	0.158367	0.962222	-0.221467	0.171409	-0.247684	-0.953557	-0.972388	0.113051	-0.204159
158	1043041214													1.212476	0.521387	1.203619	0.161574	0.964227	-0.210142	0.174141	-0.237455	-0.955662	-0.971375	0.117816	-0.206278
159	1043057881													0.155341	0.899140	2.865141	0.160187	0.966486	-0.200614	0.174132	-0.227720	-0.958030	-0.971606	0.118530	-0.204774
160	1043074548													-0.230803	1.960090	2.856543	0.154201	0.968225	-0.196880	0.171277	-0.222442	-0.959783	-0.973081	0.114278	-0.200136
161	1043091215													0.519845	2.213294	1.561993	0.161196	0.966883	-0.197873	0.166885	-0.224312	-0.960121	-0.972710	0.121745	-0.197517
162	1043107882													1.583017	0.954962	0.058690	0.172350	0.963917	-0.202879	0.163142	-0.231049	-0.959167	-0.971432	0.132214	-0.197077
163	1043124549													1.385045	-0.692873	1.249506	0.177110	0.962663	-0.204723	0.161010	-0.233550	-0.958921	-0.970931	0.136872	-0.196362
164	1043141216													0.453017	-0.039259	5.719144	0.154502	0.965563	-0.209324	0.155609	-0.233006	-0.959945	-0.975661	0.115740	-0.186250
165	1043157883													0.980579	3.194088	7.982296	0.129573	0.968019	-0.214827	0.147030	-0.233015	-0.961294	-0.980609	0.092971	-0.172520
166	1043174550													2.177715	4.301806	5.019143	0.146151	0.964871	-0.218319	0.138013	-0.238418	-0.961306	-0.979588	0.110365	-0.168010
167	1043191217													-0.105708	-1.131897	2.250241	0.173293	0.958742	-0.225352	0.128484	-0.248866	-0.959978	-0.976454	0.137403	-0.166310
168	1043207884													-0.724800	-4.458808	-1.545813	0.182898	0.955124	-0.232993	0.123003	-0.257360	-0.958455	-0.975407	0.146641	-0.164554
169	1043224551													-0.038319	-2.559340	-3.469047	0.166333	0.956468	-0.239797	0.121445	-0.261203	-0.957614	-0.978562	0.130161	-0.159605
170	1043241218													0.256395	-1.066320	-2.762249	0.148943	0.958872	-0.241622	0.120704	-0.260150	-0.957994	-0.981451	0.113522	-0.154487
171	1043257885													-0.287287	-2.197435	-1.738663	0.147126	0.959688	-0.239484	0.117618	-0.257376	-0.959127	-0.982100	0.112944	-0.150743
172	1043274552													-0.804283	-3.763612	-1.580855	0.150173	0.960045	-0.236141	0.111372	-0.253756	-0.960835	-0.982367	0.117992	-0.145029
173	1043291219													-1.115296	-3.750775	-1.054367	0.142575	0.961955	-0.233058	0.101002	-0.248374	-0.963384	-0.984617	0.113815	-0.132571
174	1043307886													-1.029431	-2.384843	1.049880	0.128347	0.964768	-0.229673	0.086941	-0.241642	-0.966463	-0.987911	0.104075	-0.114892
175	1043324553													-1.441509	-1.825962	3.051176	0.128355	0.965325	-0.227315	0.072573	-0.237739	-0.968614	-0.989069	0.107830	-0.100571
176	1043341220													-0.695618	-1.870201	2.948996	0.141692	0.963460	-0.227306	0.062885	-0.237919	-0.969247	-0.987911	0.123040	-0.094299
177	1043357887													0.173619	-1.545867	0.639584	0.151551	0.961633	-0.228681	0.060197	-0.239903	-0.968929	-0.986615	0.133077	-0.094245
178	1043374554													0.478602	-0.274613	-0.813183	0.150229	0.961399	-0.230530	0.062535	-0.241950	-0.968272	-0.986672	0.131046	-0.096469
179	1043391221													0.216749	1.164458	-0.821476	0.143632	0.962626	-0.229611	0.067464	-0.241001	-0.968177	-0.987329	0.123571	-0.099559
180	1043407888													-0.149960	1.331776	-0.651461	0.145578	0.962856	-0.227412	0.073005	-0.239688	-0.968101	-0.986650	0.124332	-0.105187
181	1043424555													-1.133057	0.214391	-0.930909	0.156188	0.962142	-0.223356	0.078658	-0.237529	-0.968190	-0.984590	0.133651	-0.112779
182	1043441222													-1.793648	-0.774175	-1.422022	0.166046	0.961694	-0.218114	0.084093	-0.234188	-0.968548	-0.982526	0.142481	-0.119758
183	1043457889													-1.752330	-0.553876	-1.992943	0.169882	0.962091	-0.213356	0.088756	-0.230560	-0.969002	-0.981459	0.145679	-0.124559
184	1043474556													-1.794740	0.144176	-1.885980	0.167157	0.963195	-0.210507	0.092330	-0.227865	-0.969305	-0.981598	0.142590	-0.127021
185	1043491223													-1.294004	0.506906	-1.505020	0.164008	0.963881	-0.209843	0.095061	-0.227176	-0.969203	-0.981868	0.139009	-0.128887
186	1043507890													-1.036776	0.170396	-1.458989	0.165249	0.963622	-0.210060	0.097595	-0.227920	-0.968776	-0.981411	0.139588	-0.131708
187	1043524557													-0.644876	-0.164088	-1.686083	0.165021	0.963575	-0.210456	0.100435	-0.228689	-0.968305	-0.981163	0.138653	-0.134515
188	1043541224													-0.309942	0.162156	-2.045931	0.162512	0.963818	-0.211295	0.103367	-0.229593	-0.967782	-0.981277	0.135435	-0.136939
189	1043557891													-0.188370	0.658144	-2.242795	0.159298	0.963797	-0.213819	0.105546	-0.231970	-0.966980	-0.981572	0.131470	-0.138677
190	1043574558													0.191244	1.028932	-2.161572	0.155178	0.963531	-0.218007	0.106202	-0.235672	-0.966012	-0.982161	0.126751	-0.138900
191	1043591225													0.014948	1.069471	-1.824776	0.152922	0.962704	-0.223196	0.104824	-0.240379	-0.965002	-0.982663	0.124173	-0.137674
192	1043607892													-0.100618	0.822024	-1.676168	0.154191	0.961125	-0.229052	0.101144	-0.245960	-0.963988	-0.982850	0.125471	-0.135137
193	1043624559													-0.382558	0.670412	-1.646607	0.155557	0.959580	-0.234538	0.095381	-0.250910	-0.963300	-0.983211	0.127478	-0.130556
194	1043641226													-0.776583	0.594510	-1.178510	0.155723	0.958230	-0.239888	0.087826	-0.255320	-0.962859	-0.983889	0.128871	-0.123917
195	1043657893													-0.696796	0.678470	-0.155228	0.155469	0.956699	-0.246083	0.078879	-0.260340	-0.962290	-0.984686	0.130196	-0.115938
196	1043674560													-0.506741	0.765304	1.295235	0.155454	0.954877	-0.253070	0.070079	-0.266199	-0.961367	-0.985354	0.131714	-0.108299
197	1043691227													-0.080159	0.841078	2.192705	0.157781	0.952643	-0.259955	0.063112	-0.272443	-0.960100	-0.985455	0.135079	-0.103110
198	1043707894													0.447285	1.149503	1.733433	0.162101	0.950537	-0.264957	0.059024	-0.277368	-0.958949	-0.985007	0.139807	-0.101066
199	1043724561													0.295062	1.838406	0.541488	0.161984	0.949877	-0.267386	0.057632	-0.279608	-0.958383	-0.985109	0.139832	-0.100036
200	1043741228													-0.509674	1.736225	0.702981	0.157140	0.950584	-0.267765	0.057869	-0.279530	-0.958391	-0.985879	0.135106	-0.098935
201	1043757895													-0.198466	-0.909989	2.478225	0.158791	0.949417	-0.270911	0.060409	-0.283221	-0.957150	-0.985462	0.135621	-0.102326
202	1043774562													0.963426	0.099080	6.528229	0.137865	0.952328	-0.272147	0.074822	-0.284000	-0.955901	-0.987621	0.111422	-0.110408
203	1043791229													1.641678	3.511506	6.541595	0.109975	0.956883	-0.268850	0.092659	-0.279183	-0.955757	-0.989606	0.080198	-0.119367
204	1043807896													1.509421	3.967255	3.517722	0.138431	0.956936	-0.255168	0.103800	-0.270248	-0.957179	-0.984917	0.106017	-0.136740
205	1043824563													-0.231978	-0.028501	0.768597	0.173169	0.956098	-0.236410	0.111252	-0.257489	-0.959855	-0.978588	0.139916	-0.150957
206	1043841230													-1.964835	-3.536728	0.049506	0.174814	0.958497	-0.225218	0.113866	-0.246886	-0.962331	-0.977995	0.142584	-0.152300
207	1043857897													-1.242296	-2.133147	-0.695909	0.160605	0.962698	-0.217759	0.112695	-0.237065	-0.964935	-0.980564	0.130433	-0.146565
208	1043874564													-1.235396	0.327280	-0.564359	0.140661	0.966062	-0.216654	0.110269	-0.232755	-0.966264	-0.983898	0.112025	-0.139266
209	1043891231													-0.773432	-0.629253	0.549095	0.139614	0.966302	-0.216259	0.109528	-0.232128	-0.966499	-0.984130	0.111250	-0.138246
210	1043907898													-1.025900	-3.184392	-0.509441	0.161131	0.962730	-0.217230	0.111038	-0.236392	-0.965292	-0.980667	0.131418	-0.144990
211	1043924565													-1.270462	-4.688843	-2.219468	0.172390	0.960211	-0.219719	0.115214	-0.241183	-0.963616	-0.978268	0.140803	-0.152208
212	1043941232													-0.855895	-3.919956	-1.955655	0.159340	0.961325	-0.224644	0.121416	-0.244907	-0.961914	-0.979729	0.125996	-0.155743
213	1043957899													0.219555	-2.158463	-0.543404	0.143840	0.962638	-0.229431	0.128142	-0.248008	-0.960246	-0.981269	0.108722	-0.159028
214	1043974566													0.816793	-1.254198	0.568504	0.135242	0.962923	-0.233429	0.132469	-0.251051	-0.958867	-0.981917	0.098757	-0.161510
215	1043991233													0.538047	-0.951427	0.981033	0.132201	0.962565	-0.236625	0.132968	-0.253784	-0.958078	-0.982264	0.095195	-0.161541
216	1044007900													0.575414	-0.375481	0.515872	0.126303	0.962948	-0.238283	0.130178	-0.254219	-0.958346	-0.983413	0.090023	-0.157464
217	1044024567													1.533611	0.721786	-0.106184	0.113664	0.964233	-0.239446	0.125260	-0.252993	-0.959325	-0.985591	0.079048	-0.149536
218	1044041234													2.264674	1.315340	-0.235766	0.108526	0.965219	-0.237852	0.120125	-0.250245	-0.960701	-0.986809	0.075689	-0.143105
219	1044057901													1.928099	0.065388	-0.567530	0.121435	0.964435	-0.234773	0.115949	-0.248687	-0.961619	-0.985804	0.089552	-0.142024
220	1044074568													1.443986	-2.021164	-1.815371	0.138731	0.962909	-0.231431	0.113416	-0.247601	-0.962201	-0.983814	0.107239	-0.143559
221	1044091235													1.292278	-2.881608	-2.788081	0.141787	0.962714	-0.230388	0.112482	-0.246901	-0.962490	-0.983486	0.110554	-0.143296
222	1044107902													1.257574	-2.010119	-2.553072	0.131004	0.964132	-0.230842	0.112513	-0.245804	-0.962768	-0.984977	0.100154	-0.140679
223	1044124569													1.413600	-0.788787	-1.897148	0.120258	0.965694	-0.230159	0.112585	-0.243612	-0.963316	-0.986338	0.089934	-0.138019
224	1044141236													1.007003	-0.214322	-1.449928	0.115613	0.967304	-0.225736	0.112869	-0.238582	-0.964541	-0.986861	0.086035	-0.136762
225	1044157903													0.466675	-0.115538	-1.301967	0.114160	0.969081	-0.218744	0.113760	-0.231487	-0.966164	-0.986928	0.085413	-0.136669
226	1044174570													0.266230	-0.178123	-1.103017	0.113265	0.970971	-0.210679	0.115570	-0.223480	-0.967833	-0.986821	0.085274	-0.137527
227	1044191237													0.668819	0.064284	-0.995304	0.112964	0.972759	-0.202431	0.118072	-0.215434	-0.969354	-0.986559	0.085600	-0.139192
228	1044207904													0.930471	0.608627	-0.883862	0.111756	0.974479	-0.194685	0.120971	-0.207796	-0.970663	-0.986345	0.084926	-0.141106
229	1044224571													0.982256	1.176538	-0.565813	0.111099	0.976050	-0.187039	0.124266	-0.200370	-0.971807	-0.986010	0.084724	-0.143551
230	1044241238													0.941546	1.264358	-0.200300	0.116425	0.976952	-0.178913	0.128195	-0.193413	-0.972706	-0.984891	0.090312	-0.147759
231	1044257905													0.834435	0.740886	-0.478283	0.127473	0.977279	-0.169343	0.132951	-0.186031	-0.973507	-0.982891	0.101582	-0.153644
232	1044274572													0.826887	0.019022	-0.933473	0.137816	0.977471	-0.159863	0.138364	-0.178821	-0.974104	-0.980746	0.112128	-0.159891
233	1044291239													0.617767	-0.270572	-0.807744	0.144050	0.978089	-0.150302	0.144590	-0.171060	-0.974593	-0.978950	0.118657	-0.166063
234	1044307906													0.649871	-0.051986	-0.095971	0.145902	0.979310	-0.140233	0.151242	-0.162163	-0.975105	-0.977670	0.121060	-0.171773
235	1044324573													-0.057998	0.106114	1.283679	0.144958	0.980811	-0.130369	0.156528	-0.152834	-0.975777	-0.976978	0.121041	-0.175679
236	1044341240													-0.290015	0.404508	1.850576	0.145567	0.981720	-0.122623	0.159234	-0.145575	-0.976449	-0.976450	0.122613	-0.177514
237	1044357907													-0.440260	1.256646	0.804429	0.143246	0.982505	-0.119018	0.159669	-0.141626	-0.976958	-0.976722	0.120942	-0.177163
238	1044374574													0.055616	1.969082	-0.129036	0.136830	0.983252	-0.120388	0.158965	-0.141751	-0.977055	-0.977756	0.114553	-0.175699
239	1044391241													0.908792	1.805388	-0.066482	0.132873	0.983213	-0.125048	0.158822	-0.145658	-0.976504	-0.978325	0.109891	-0.175510
240	1044407908													1.886571	1.280858	1.020291	0.130049	0.983201	-0.128071	0.160102	-0.148297	-0.975897	-0.978496	0.106410	-0.176699
241	1044424575													0.207098	0.860920	4.201640	0.119591	0.984719	-0.126596	0.159262	-0.144887	-0.976547	-0.979966	0.096625	-0.174155
242	1044441242													0.007066	2.394625	8.415119	0.094271	0.987485	-0.126436	0.152024	-0.139791	-0.978441	-0.983871	0.073017	-0.163300
243	1044457909													0.638589	3.885791	6.861559	0.098403	0.986187	-0.133238	0.141157	-0.146366	-0.979108	-0.985085	0.077539	-0.153609
244	1044474576													-0.912595	0.728433	2.737909	0.132461	0.981651	-0.137166	0.130582	-0.154462	-0.979331	-0.982549	0.111812	-0.148646
245	1044491243													-0.504398	-3.459300	-0.249866	0.154898	0.976561	-0.149451	0.120697	-0.168850	-0.978224	-0.980530	0.133486	-0.144023
246	1044507910													-0.631887	-4.692123	-3.114192	0.153323	0.974849	-0.161744	0.115809	-0.180278	-0.976774	-0.981366	0.131031	-0.140538
247	1044524577													0.803120	-2.208652	-4.521337	0.133937	0.976143	-0.170898	0.114534	-0.186544	-0.975748	-0.984349	0.111115	-0.136787
248	1044541244													0.863046	-1.346711	-2.520425	0.110479	0.977918	-0.177402	0.113496	-0.189741	-0.975252	-0.987377	0.087610	-0.131953
249	1044557911													0.508308	-2.822039	-0.680218	0.111683	0.977740	-0.177626	0.110374	-0.189843	-0.975591	-0.987595	0.089352	-0.129119
250	1044574578													0.418653	-4.083732	-1.897988	0.124587	0.976721	-0.174628	0.103308	-0.187812	-0.976757	-0.986816	0.103651	-0.124302
251	1044591245													0.167636	-3.821508	-1.976572	0.117514	0.978480	-0.169608	0.091739	-0.180758	-0.979240	-0.988825	0.099515	-0.111006
252	1044607912													-0.369965	-2.978567	0.628801	0.101692	0.981193	-0.164068	0.077803	-0.172262	-0.981974	-0.991769	0.087094	-0.093858
253	1044624579													-0.898357	-2.335840	3.398080	0.094932	0.982619	-0.159522	0.066598	-0.166156	-0.983848	-0.993254	0.082774	-0.081214
254	1044641246													-0.061978	-1.096775	3.832807	0.091375	0.982966	-0.159466	0.062007	-0.165441	-0.984268	-0.993884	0.080050	-0.076068
255	1044657913													0.466650	0.992918	1.850443	0.091087	0.982635	-0.161651	0.063981	-0.167765	-0.983749	-0.993786	0.079264	-0.078151
256	1044674580													-0.045712	2.560976	-0.472091	0.095152	0.982002	-0.163151	0.070053	-0.170094	-0.982935	-0.992995	0.082099	-0.084977
257	1044691247													-0.469995	2.360898	-1.459897	0.093479	0.982370	-0.161897	0.077858	-0.169323	-0.982480	-0.992572	0.079237	-0.092314
258	1044707914													-1.156579	0.492915	-0.636381	0.090235	0.983306	-0.158007	0.085657	-0.165729	-0.982444	-0.992230	0.075116	-0.099182
259	1044724581													-1.336190	-1.042800	-0.296039	0.104530	0.982809	-0.152181	0.092127	-0.161931	-0.982492	-0.990245	0.088680	-0.107470
260	1044741248													-1.196524	-1.720050	-1.504678	0.121216	0.981729	-0.146676	0.096485	-0.158719	-0.982598	-0.987926	0.104955	-0.113962
261	1044757915													-0.658746	-0.967275	-1.630628	0.118888	0.982658	-0.142300	0.099323	-0.154368	-0.983008	-0.987927	0.102734	-0.115953
262	1044774582													-0.430256	0.117174	-0.615956	0.108905	0.984198	-0.139618	0.101153	-0.150697	-0.983391	-0.988892	0.092973	-0.115967
263	1044791249													-0.301743	0.452339	-0.159842	0.111133	0.984439	-0.136126	0.102614	-0.147609	-0.983708	-0.988494	0.095354	-0.117421
264	1044807916													-0.330250	0.145904	-1.110708	0.123585	0.983373	-0.133060	0.103784	-0.146161	-0.983802	-0.986892	0.107774	-0.120121
265	1044824583													-0.432951	0.023923	-2.280415	0.130587	0.982747	-0.130979	0.104473	-0.145015	-0.983898	-0.985917	0.114801	-0.121608
266	1044841250													-0.628353	0.308812	-2.722973	0.127325	0.983278	-0.130202	0.104044	-0.143787	-0.984124	-0.986389	0.111757	-0.120612
267	1044857917													-0.897651	0.784013	-2.613605	0.121924	0.983725	-0.131982	0.101739	-0.144661	-0.984237	-0.987311	0.106574	-0.117721
268	1044874584													-0.888873	1.153516	-2.351316	0.120408	0.983341	-0.136171	0.097747	-0.148246	-0.984108	-0.987901	0.105184	-0.113968
269	1044891251													-0.777166	1.225429	-2.323751	0.123879	0.982240	-0.140919	0.092470	-0.152822	-0.983918	-0.987979	0.108856	-0.109759
270	1044907918													-0.923628	0.714402	-2.315182	0.128949	0.980891	-0.145691	0.086229	-0.157452	-0.983755	-0.987895	0.114291	-0.104885
271	1044924585													-0.898236	0.012458	-1.636840	0.129136	0.980108	-0.150705	0.079392	-0.161708	-0.983640	-0.988444	0.115059	-0.098695
272	1044941252													-0.620843	-0.290642	-0.006329	0.124506	0.979843	-0.156224	0.072079	-0.165964	-0.983494	-0.989597	0.111191	-0.091289
273	1044957919													-0.537508	-0.000236	1.531737	0.119164	0.979627	-0.161649	0.064907	-0.170147	-0.983279	-0.990751	0.106680	-0.083860
274	1044974586													-0.475249	0.828221	2.268499	0.114309	0.979189	-0.167698	0.059111	-0.175210	-0.982755	-0.991685	0.102425	-0.077909
275	1044991253													-0.603373	1.384545	1.909946	0.115396	0.978162	-0.172867	0.055776	-0.180136	-0.982059	-0.991752	0.103684	-0.075345
276	1045007920													-0.654326	1.535020	0.713076	0.119934	0.976889	-0.176929	0.055007	-0.184480	-0.981296	-0.991257	0.107958	-0.075861
277	1045024587													-0.899992	0.718341	0.320130	0.123216	0.975970	-0.179724	0.055935	-0.187646	-0.980643	-0.990802	0.110778	-0.077712
278	1045041254													-0.943568	-1.401915	1.686662	0.130049	0.974238	-0.184250	0.058701	-0.193068	-0.979428	-0.989768	0.116558	-0.082297
279	1045057921													1.049739	-0.146596	4.959567	0.118047	0.974769	-0.189447	0.069936	-0.198468	-0.977609	-0.990542	0.102154	-0.091600
280	1045074588													1.655026	3.007550	5.961052	0.094189	0.977535	-0.188558	0.085411	-0.196636	-0.976749	-0.991884	0.075894	-0.102013
281	1045091255													1.392108	2.975654	3.294269	0.121987	0.976257	-0.179000	0.095313	-0.191036	-0.976945	-0.987945	0.102114	-0.116354
282	1045107922													-0.247027	-1.383981	-0.093820	0.153750	0.973747	-0.167863	0.102570	-0.184693	-0.977429	-0.982772	0.133062	-0.128274
283	1045124589													-0.985327	-3.241328	-0.704993	0.147335	0.975784	-0.161672	0.107224	-0.178250	-0.978126	-0.983258	0.126777	-0.130890
284	1045141256													-0.589158	-1.200835	-0.490683	0.120601	0.979849	-0.159222	0.108824	-0.172475	-0.978984	-0.986718	0.100739	-0.127432
285	1045157923													-0.703139	0.929704	0.549842	0.104673	0.981746	-0.158802	0.109841	-0.170114	-0.979283	-0.988422	0.085062	-0.125643
286	1045174590													-0.860345	-0.298555	1.286856	0.111078	0.980849	-0.159989	0.112467	-0.172357	-0.978593	-0.987427	0.090706	-0.129459
287	1045191257													-0.847299	-2.784190	0.459364	0.131272	0.977757	-0.163582	0.117095	-0.179148	-0.976829	-0.984407	0.109076	-0.138008
288	1045207924													-0.323267	-4.127264	-1.082209	0.146107	0.974654	-0.169417	0.123679	-0.187908	-0.974369	-0.981507	0.121409	-0.147999
289	1045224591													0.219639	-3.715601	-1.976903	0.143660	0.973773	-0.176434	0.132018	-0.195547	-0.971768	-0.980782	0.116312	-0.156647
290	1045241258													0.987022	-2.283468	-1.369796	0.133443	0.973966	-0.183259	0.140550	-0.201642	-0.969323	-0.981040	0.103592	-0.163798
291	1045257925													0.817099	-1.419431	-0.141009	0.130037	0.973569	-0.187758	0.147059	-0.206209	-0.967394	-0.980543	0.098185	-0.169987
292	1045274592													0.309314	-1.176010	0.238488	0.127882	0.973137	-0.191444	0.149682	-0.209755	-0.966229	-0.980429	0.094908	-0.172485
293	1045291259													0.246541	-0.648860	0.608331	0.120662	0.973254	-0.195494	0.148463	-0.212411	-0.965837	-0.981529	0.087516	-0.170123
294	1045307926													0.588330	0.183069	0.459819	0.110468	0.973496	-0.200256	0.145015	-0.215120	-0.965761	-0.983243	0.077646	-0.164936
295	1045324593													1.302012	0.826577	-0.125046	0.105118	0.973080	-0.205101	0.140913	-0.218737	-0.965555	-0.984426	0.072596	-0.160113
296	1045341260													1.392872	0.331478	-0.581775	0.108508	0.971555	-0.210494	0.137023	-0.224340	-0.964830	-0.984607	0.075850	-0.157468
297	1045357927													1.178590	-0.980186	-1.081023	0.116954	0.969094	-0.217205	0.134181	-0.232119	-0.963388	-0.984031	0.083527	-0.157181
298	1045374594													0.888361	-1.915229	-1.558266	0.120321	0.966691	-0.225901	0.132644	-0.241168	-0.961376	-0.983834	0.085710	-0.157243
299	1045391261													0.864186	-1.769427	-1.640541	0.115615	0.964444	-0.237656	0.131894	-0.252048	-0.958684	-0.984498	0.079493	-0.156345
300	1045407928													0.711888	-0.844369	-1.418494	0.108481	0.962191	-0.249841	0.131629	-0.263014	-0.955771	-0.985345	0.070797	-0.155184
301	1045424595													0.655492	-0.175002	-1.229453	0.104010	0.959308	-0.262506	0.131316	-0.274872	-0.952471	-0.985869	0.064595	-0.154562
302	1045441262													0.305770	-0.035998	-1.141561	0.102045	0.956318	-0.273940	0.131422	-0.285924	-0.949197	-0.986060	0.060859	-0.154859
303	1045457929													0.236361	0.007466	-1.037964	0.098551	0.953629	-0.284393	0.132569	-0.295818	-0.946001	-0.986262	0.055528	-0.155575
304	1045474596													0.556617	0.156624	-0.687211	0.093394	0.951301	-0.293775	0.135218	-0.304450	-0.942882	-0.986404	0.048336	-0.157067
305	1045491263													1.165568	0.485260	-0.336210	0.091585	0.949041	-0.301552	0.139351	-0.312060	-0.939787	-0.985999	0.044049	-0.160830
306	1045507930													1.749508	0.723431	-0.275326	0.095136	0.946694	-0.307767	0.144313	-0.319019	-0.936697	-0.984948	0.044699	-0.166970
307	1045524597													1.980521	0.587654	-0.372525	0.103511	0.944388	-0.312116	0.149522	-0.325011	-0.933815	-0.983325	0.049992	-0.174849
308	1045541264													1.848219	0.196300	-0.768126	0.114850	0.941946	-0.315512	0.154139	-0.330665	-0.931075	-0.981351	0.058301	-0.183168
309	1045557931													1.369780	-0.275146	-0.988045	0.125103	0.939354	-0.319316	0.157424	-0.336561	-0.928410	-0.979575	0.065879	-0.189982
310	1045574598													0.748533	-0.549963	-0.744370	0.131715	0.936622	-0.324638	0.158904	-0.343206	-0.925721	-0.978468	0.070346	-0.194039
311	1045591265													0.195558	-0.290602	-0.198127	0.133091	0.933991	-0.331584	0.158838	-0.350336	-0.923058	-0.978293	0.070183	-0.194980
312	1045607932													0.306205	0.382267	-0.005884	0.131216	0.931232	-0.339983	0.158028	-0.358211	-0.920170	-0.978677	0.067014	-0.194164
313	1045624599													0.755849	0.916249	-0.310482	0.126806	0.928188	-0.349840	0.157629	-0.367061	-0.916744	-0.979323	0.061104	-0.192854
314	1045641266													1.525652	1.249451	-0.625314	0.122117	0.925240	-0.359191	0.159003	-0.375463	-0.913097	-0.979697	0.054393	-0.192967
315	1045657933													2.364899	0.450778	-0.629993	0.122328	0.921306	-0.369095	0.161996	-0.385436	-0.908403	-0.979180	0.051331	-0.196397
316	1045674600													2.652918	-1.614249	0.433178	0.130805	0.916844	-0.377210	0.164478	-0.395275	-0.903717	-0.977669	0.056168	-0.202504
317	1045691267													0.041889	-2.939634	3.293285	0.129580	0.914033	-0.384386	0.161346	-0.401924	-0.901346	-0.978354	0.054778	-0.199557
318	1045707934													-2.761128	-0.968879	7.714388	0.100095	0.913033	-0.395413	0.148536	-0.406667	-0.901420	-0.983828	0.031494	-0.176324
319	1045724601													-1.527316	2.567783	5.987472	0.081647	0.908806	-0.409152	0.133191	-0.416790	-0.899192	-0.987722	0.018921	-0.155075
320	1045741268													-0.751377	1.047818	1.784230	0.101285	0.899769	-0.424450	0.122631	-0.434682	-0.892196	-0.987271	0.038315	-0.154366
321	1045757935													-0.887653	-3.652798	-1.604815	0.126686	0.889091	-0.439849	0.118879	-0.453835	-0.883121	-0.984794	0.059591	-0.163188
322	1045774602													-1.200319	-5.428028	-3.175993	0.127458	0.880218	-0.457133	0.119182	-0.471144	-0.873967	-0.984657	0.056912	-0.164957
323	1045791269													-0.157087	-3.402214	-2.090631	0.106995	0.874090	-0.473833	0.119043	-0.484403	-0.866708	-0.987107	0.036327	-0.155883
324	1045807936													0.380729	-0.869207	0.320790	0.086978	0.869675	-0.485901	0.114791	-0.493250	-0.862281	-0.989575	0.019222	-0.142732
325	1045824603													-0.473311	-0.585587	2.077723	0.093445	0.864768	-0.493401	0.107103	-0.501425	-0.858546	-0.989847	0.027382	-0.139475
326	1045841270													-2.157946	-1.873308	2.440907	0.104559	0.859212	-0.500822	0.099674	-0.510100	-0.854320	-0.989511	0.039408	-0.138976
327	1045857937													-3.235333	-1.466551	2.985401	0.106450	0.852626	-0.511564	0.096121	-0.520901	-0.848188	-0.989661	0.041117	-0.137405
328	1045874604													-2.429931	-0.035517	1.426978	0.113477	0.842507	-0.526598	0.096665	-0.536869	-0.838109	-0.988827	0.044203	-0.142363
329	1045891271													-2.264265	0.069745	-0.635998	0.124896	0.829895	-0.543760	0.101441	-0.555861	-0.825063	-0.986970	0.047888	-0.153610
330	1045907938													-2.572170	-0.776840	-1.552944	0.128135	0.816762	-0.562567	0.109068	-0.575407	-0.810562	-0.985741	0.042504	-0.162812
331	1045924605													-2.603986	-0.683278	-1.354864	0.126730	0.803449	-0.581730	0.117346	-0.594483	-0.795500	-0.984972	0.032551	-0.169620
332	1045941272													-2.189292	0.141694	-1.230312	0.127495	0.789130	-0.600848	0.124714	-0.613739	-0.779597	-0.983967	0.024460	-0.176664
333	1045957939													-1.807525	0.499635	-1.021345	0.131025	0.773190	-0.620492	0.130377	-0.633891	-0.762355	-0.982769	0.018989	-0.183862
334	1045974606													-1.756067	0.178912	-0.544517	0.135794	0.755893	-0.640457	0.133884	-0.654516	-0.744099	-0.981649	0.015297	-0.190082
335	1045991273													-1.783884	-0.148554	-0.301063	0.138237	0.737711	-0.660813	0.135398	-0.675031	-0.725259	-0.981100	0.010784	-0.193199
336	1046007940													-1.139393	-0.200708	-0.260370	0.136495	0.718332	-0.682179	0.135649	-0.695690	-0.705418	-0.981310	0.003749	-0.192399
337	1046024607													-0.254928	-0.102875	-0.269605	0.134119	0.697081	-0.704337	0.135218	-0.716984	-0.683850	-0.981697	-0.003521	-0.190419
338	1046041274													0.104531	0.072693	-0.526952	0.134071	0.673971	-0.726490	0.134471	-0.738701	-0.660483	-0.981806	-0.009140	-0.189668
339	1046057941													0.056961	-0.005601	-0.746353	0.133849	0.649648	-0.748360	0.133796	-0.760087	-0.635898	-0.981928	-0.015013	-0.188657
340	1046074608													-0.057462	0.107415	-0.468116	0.130849	0.624631	-0.769880	0.133031	-0.780596	-0.610715	-0.982436	-0.022506	-0.185235
341	1046091275													-0.080655	0.423273	-0.034810	0.128480	0.598633	-0.790652	0.131776	-0.800495	-0.584673	-0.982918	-0.029071	-0.181733
342	1046107942													0.088698	0.293110	-0.101240	0.130111	0.571585	-0.810161	0.130023	-0.819887	-0.557565	-0.982937	-0.032794	-0.180996
343	1046124609													-0.068174	0.060837	-0.489985	0.134862	0.543767	-0.828329	0.127586	-0.838537	-0.529696	-0.982616	-0.034248	-0.182464
344	1046141276													-0.426413	-0.051569	-0.631957	0.138692	0.515202	-0.845773	0.123890	-0.856343	-0.501326	-0.982556	-0.035253	-0.182596
345	1046157943													-0.529032	0.098520	-0.602997	0.140847	0.485641	-0.862737	0.118827	-0.873417	-0.472253	-0.982875	-0.036001	-0.180725
346	1046174610													-0.404423	0.425047	-0.678916	0.142500	0.455012	-0.879010	0.112328	-0.889770	-0.442372	-0.983400	-0.035700	-0.177903
347	1046191277													-0.481989	0.742103	-0.661265	0.144469	0.423371	-0.894363	0.104396	-0.905322	-0.411696	-0.983987	-0.033891	-0.174989
348	1046207944													-0.689327	0.752314	-0.451784	0.147543	0.389826	-0.908992	0.095414	-0.920374	-0.379220	-0.984443	-0.030780	-0.172990
349	1046224611													-0.840723	0.428737	-0.033990	0.151407	0.354858	-0.922579	0.086830	-0.934506	-0.345195	-0.984650	-0.027842	-0.172303
350	1046241278													-1.082841	-0.474569	0.529767	0.155262	0.318817	-0.935013	0.080690	-0.947421	-0.309649	-0.984572	-0.027370	-0.172824
351	1046257945													-0.525270	-2.005098	1.455868	0.155219	0.282287	-0.946690	0.078913	-0.958785	-0.272955	-0.984723	-0.032339	-0.171097
352	1046274612													1.287404	-3.164290	2.222132	0.153043	0.247082	-0.956833	0.083410	-0.968013	-0.236628	-0.984693	-0.043595	-0.168756
353	1046291279													2.017709	-3.448869	0.904602	0.164820	0.215014	-0.962602	0.091517	-0.975073	-0.202130	-0.982069	-0.054779	-0.180389
354	1046307946													-0.270150	-2.922715	-0.741680	0.180488	0.189895	-0.965072	0.100071	-0.979640	-0.174046	-0.978473	-0.065162	-0.195816
355	1046324613													-2.136438	-1.217546	-0.916672	0.181429	0.170419	-0.968525	0.106051	-0.982517	-0.153015	-0.977669	-0.074951	-0.196330
356	1046341280													-1.400006	0.997425	-0.293610	0.167591	0.151267	-0.974182	0.106966	-0.985115	-0.134563	-0.980036	-0.081653	-0.181277
357	1046357947													0.957638	2.186034	-0.073659	0.157199	0.127808	-0.979262	0.103064	-0.988299	-0.112442	-0.982174	-0.083251	-0.168532
358	1046374614													2.109573	2.209565	-0.218728	0.159988	0.098757	-0.982166	0.096354	-0.991794	-0.084030	-0.982405	-0.081192	-0.168191
359	1046391281													0.593279	1.646983	-0.284905	0.173787	0.063458	-0.982737	0.088136	-0.994919	-0.048658	-0.980831	-0.078158	-0.178497
360	1046407948													-1.325664	1.031871	-0.612153	0.183623	0.023357	-0.982719	0.079882	-0.996766	-0.008765	-0.979746	-0.076892	-0.184895
361	1046424615													-0.877849	0.675700	-0.591368	0.177064	-0.020926	-0.983977	0.072546	-0.996777	0.034253	-0.981522	-0.077448	-0.174976
362	1046441282													1.513612	-0.096725	0.154334	0.164531	-0.066561	-0.984124	0.067492	-0.994623	0.078554	-0.984060	-0.079345	-0.159154
363	1046457949													2.759618	-1.030742	0.851320	0.162692	-0.110946	-0.980419	0.065425	-0.990258	0.122916	-0.984505	-0.084141	-0.153849
364	1046474616													1.750942	-1.668616	0.478867	0.169684	-0.152435	-0.973638	0.065533	-0.984033	0.165483	-0.983317	-0.091886	-0.156985
365	1046491283													0.551281	-1.899276	-0.012101	0.172484	-0.190359	-0.966443	0.066795	-0.976630	0.204287	-0.982745	-0.099789	-0.155738
366	1046507950													0.437237	-2.007215	-0.236233	0.168248	-0.223789	-0.960006	0.067820	-0.968953	0.237761	-0.983409	-0.105110	-0.147847
367	1046524617													0.847469	-1.971556	-0.291513	0.162377	-0.252986	-0.953746	0.067192	-0.961495	0.266481	-0.984438	-0.107354	-0.139126
368	1046541284													0.921791	-1.871507	-0.200323	0.158241	-0.279871	-0.946907	0.064426	-0.954019	0.292740	-0.985296	-0.107329	-0.132934
369	1046557951													0.632265	-1.923218	-0.066578	0.156022	-0.305275	-0.939396	0.059869	-0.946371	0.317485	-0.985937	-0.105776	-0.129379
370	1046574618													0.193156	-1.926220	0.233740	0.154481	-0.329726	-0.931352	0.054081	-0.938432	0.341203	-0.986514	-0.103078	-0.127138
371	1046591285													-0.149223	-1.940932	0.481821	0.153508	-0.353161	-0.922883	0.047823	-0.930203	0.363917	-0.986990	-0.099999	-0.125904
372	1046607952													-0.268558	-1.723475	0.438187	0.154056	-0.375269	-0.914024	0.041770	-0.921767	0.385488	-0.987179	-0.097565	-0.126329
373	1046624619													-0.200774	-1.382399	0.120327	0.154392	-0.396196	-0.905092	0.036492	-0.913165	0.405954	-0.987336	-0.095704	-0.126527
374	1046641286													0.004847	-1.056874	-0.078823	0.152765	-0.415974	-0.896454	0.032056	-0.904538	0.425187	-0.987743	-0.093690	-0.124847
375	1046657953													0.132002	-0.977280	-0.204415	0.150993	-0.434948	-0.887706	0.028289	-0.895732	0.443693	-0.988130	-0.092107	-0.122945
376	1046674620													0.053084	-0.910758	-0.376033	0.151173	-0.452897	-0.878653	0.025195	-0.886814	0.461439	-0.988186	-0.091894	-0.122652
377	1046691287													-0.231763	-0.787182	-0.292138	0.150136	-0.470279	-0.869653	0.022647	-0.877757	0.478571	-0.988406	-0.091546	-0.121133
378	1046707954													-0.441776	-0.782821	-0.121707	0.147225	-0.487004	-0.860902	0.020811	-0.868669	0.494956	-0.988884	-0.090786	-0.117755
379	1046724621													-0.434804	-0.978233	0.064977	0.144503	-0.503081	-0.852073	0.019352	-0.859509	0.510754	-0.989315	-0.090295	-0.114466
380	1046741288													-0.478804	-1.084447	0.137557	0.144083	-0.518610	-0.842783	0.018052	-0.850151	0.526229	-0.989401	-0.091034	-0.113131
381	1046757955													-0.674053	-1.089434	0.065741	0.147057	-0.533809	-0.832720	0.016967	-0.840387	0.541721	-0.988983	-0.093793	-0.114527
382	1046774622													-0.883832	-0.924232	-0.078354	0.150019	-0.548625	-0.822499	0.016031	-0.830455	0.556856	-0.988553	-0.096724	-0.115789
383	1046791289													-0.725720	-0.759884	-0.060906	0.148880	-0.562984	-0.812948	0.015273	-0.820703	0.571151	-0.988737	-0.097449	-0.113588
384	1046807956													-0.286453	-0.833516	0.056286	0.145116	-0.577344	-0.803502	0.014740	-0.810747	0.585211	-0.989305	-0.096767	-0.109142
385	1046824623													0.064878	-1.012072	0.017367	0.143610	-0.591515	-0.793402	0.014561	-0.800362	0.599340	-0.989527	-0.097624	-0.106327
386	1046841290													-0.010639	-0.934298	-0.134376	0.146135	-0.605675	-0.782178	0.014741	-0.789245	0.613901	-0.989155	-0.101243	-0.106408
387	1046857957													-0.382675	-0.742792	-0.269069	0.149955	-0.620027	-0.770117	0.015240	-0.777383	0.628843	-0.988575	-0.106035	-0.107123
388	1046874624													-0.632035	-0.602935	-0.249415	0.151921	-0.634910	-0.757502	0.016011	-0.764717	0.644168	-0.988263	-0.109991	-0.106011
389	1046891291													-0.553246	-0.749009	-0.179037	0.151244	-0.650007	-0.744725	0.017178	-0.751550	0.659453	-0.988347	-0.112532	-0.102502
390	1046907958													-0.377850	-1.136725	-0.045062	0.149546	-0.664871	-0.731835	0.018880	-0.738103	0.674423	-0.988574	-0.114674	-0.097828
391	1046924625													-0.507106	-1.441766	0.056994	0.150883	-0.678898	-0.718562	0.021027	-0.724515	0.688938	-0.988328	-0.119058	-0.095042
392	1046941292													-0.932050	-1.323068	-0.003786	0.155414	-0.691731	-0.705234	0.023157	-0.711161	0.702648	-0.987578	-0.125532	-0.094506
393	1046957959													-1.165450	-1.055444	-0.008062	0.157104	-0.704053	-0.692551	0.024712	-0.698237	0.715440	-0.987273	-0.129512	-0.092297
394	1046974626													-0.929518	-1.208054	0.148889	0.154685	-0.716857	-0.679845	0.025477	-0.685004	0.728093	-0.987635	-0.129946	-0.087696
395	1046991293													-0.508153	-1.492932	0.168955	0.152894	-0.729464	-0.666713	0.025729	-0.671478	0.740578	-0.987908	-0.130384	-0.083896
396	1047007960													-0.272780	-1.512555	-0.077761	0.155850	-0.741116	-0.653038	0.025934	-0.657818	0.752730	-0.987440	-0.134249	-0.083300
397	1047024627													-0.340918	-1.190855	-0.589950	0.161633	-0.752064	-0.638964	0.026673	-0.643911	0.764635	-0.986490	-0.140633	-0.084017
398	1047041294													-0.561545	-0.988847	-1.011129	0.166377	-0.762752	-0.624923	0.028435	-0.629781	0.776252	-0.985652	-0.146920	-0.083092
399	1047057961													-0.749692	-0.816493	-0.951905	0.168900	-0.772913	-0.611620	0.031383	-0.616003	0.787118	-0.985134	-0.152138	-0.079786
400	1047074628													-0.829395	-0.292453	-0.290504	0.173516	-0.781583	-0.599183	0.034666	-0.603188	0.796845	-0.984221	-0.159036	-0.077568
401	1047091295													0.010694	0.383676	0.911856	0.172122	-0.790398	-0.587915	0.035242	-0.591499	0.805535	-0.984445	-0.159370	-0.073955
402	1047107962													1.539663	0.401913	1.790457	0.166052	-0.801764	-0.574109	0.031633	-0.577561	0.815735	-0.985610	-0.153615	-0.070543
403	1047124629													1.446047	-0.668656	1.121581	0.172053	-0.814979	-0.553359	0.025934	-0.557794	0.829574	-0.984746	-0.157081	-0.074835
404	1047141296													0.649910	-0.553664	1.025905	0.184485	-0.827652	-0.530054	0.020216	-0.536002	0.843975	-0.982627	-0.166416	-0.082152
405	1047157963													0.222156	0.074597	0.458561	0.196069	-0.838758	-0.507978	0.016048	-0.515219	0.856908	-0.980459	-0.176165	-0.087558
406	1047174630													-0.275684	-0.657262	-0.436696	0.196463	-0.850004	-0.488770	0.014255	-0.495956	0.868230	-0.980408	-0.177542	-0.085320
407	1047191297													-0.789915	-1.997960	-0.068810	0.188362	-0.860265	-0.473777	0.014600	-0.479906	0.877198	-0.981991	-0.172148	-0.077836
408	1047207964													-1.299994	-1.896584	0.695200	0.189795	-0.867108	-0.460545	0.015204	-0.466419	0.884433	-0.981706	-0.174863	-0.075340
409	1047224631													-1.496690	0.645138	-0.041586	0.203590	-0.870527	-0.448033	0.014685	-0.454851	0.890447	-0.978946	-0.187866	-0.079819
410	1047241298													-1.193651	2.716370	-1.594635	0.210024	-0.874611	-0.436972	0.012310	-0.444540	0.895675	-0.977619	-0.193492	-0.082597
411	1047257965													0.293017	3.082907	-1.842599	0.199712	-0.880648	-0.429621	0.008068	-0.436961	0.899444	-0.979822	-0.183096	-0.080161
412	1047274632													2.215870	2.782540	-0.806631	0.187880	-0.886565	-0.422733	0.001923	-0.430064	0.902796	-0.982190	-0.170430	-0.079095
413	1047291299													3.049513	3.015689	1.095781	0.179557	-0.893233	-0.412181	-0.004754	-0.419774	0.907616	-0.983736	-0.161009	-0.079620
414	1047307966													2.663110	2.828877	2.850384	0.170729	-0.902240	-0.395997	-0.008438	-0.403222	0.915063	-0.985282	-0.152887	-0.076455
415	1047324633													2.297346	1.381359	1.836072	0.165414	-0.911616	-0.376290	-0.005754	-0.382431	0.923966	-0.986208	-0.150672	-0.068504
416	1047341300													2.126194	-0.293456	-0.453798	0.162710	-0.920573	-0.355064	0.002878	-0.359415	0.933173	-0.986670	-0.152858	-0.055831
417	1047357967													1.907887	-0.902670	-1.040482	0.152292	-0.929724	-0.335290	0.015393	-0.336975	0.941388	-0.988216	-0.148527	-0.037007
418	1047374634													1.445456	-0.487807	-0.022024	0.144017	-0.937846	-0.315760	0.029053	-0.314942	0.948666	-0.989149	-0.145798	-0.018110
419	1047391301													0.940457	0.825567	0.409956	0.148629	-0.943645	-0.295708	0.041924	-0.292748	0.955270	-0.988004	-0.154378	-0.003950
420	1047407968													0.416634	1.716792	-0.235969	0.153579	-0.948781	-0.276095	0.052972	-0.271103	0.961092	-0.986716	-0.162228	0.008624
421	1047424635													0.209908	1.426503	-0.242500	0.147329	-0.954985	-0.257484	0.061784	-0.250931	0.966031	-0.987156	-0.158233	0.022033
422	1047441302													0.206395	0.164377	0.291145	0.138356	-0.961010	-0.239411	0.068382	-0.231889	0.970336	-0.988019	-0.150623	0.033632
423	1047457969													-0.101809	-0.531525	0.388414	0.137995	-0.965344	-0.221514	0.073276	-0.213090	0.974281	-0.987719	-0.150678	0.041331
424	1047474636													-0.419017	-0.036099	-0.238218	0.142076	-0.968417	-0.204897	0.076990	-0.195559	0.977665	-0.986857	-0.154678	0.046774
425	1047491303													-0.497152	0.509299	-0.807711	0.141299	-0.971657	-0.189518	0.079830	-0.179632	0.980489	-0.986743	-0.153671	0.052186
426	1047507970													-0.307570	0.098656	-0.945123	0.132304	-0.975649	-0.174944	0.082024	-0.165114	0.982858	-0.987810	-0.144386	0.058181
427	1047524637													0.047003	-0.902945	-0.643130	0.122104	-0.979577	-0.159745	0.083706	-0.150213	0.985104	-0.988981	-0.133656	0.063655
428	1047541304													0.373438	-1.372336	-0.475438	0.119071	-0.982425	-0.143749	0.085160	-0.134140	0.987296	-0.989227	-0.129800	0.067691
429	1047557971													0.364760	-0.680958	-0.611297	0.122863	-0.984161	-0.127794	0.086409	-0.117672	0.989286	-0.988655	-0.132589	0.070583
430	1047574638													0.344865	0.328874	-0.779983	0.124951	-0.985752	-0.112604	0.087232	-0.102140	0.990938	-0.988321	-0.133642	0.073226
431	1047591305													0.369904	0.379100	-0.553041	0.119744	-0.988010	-0.097454	0.087701	-0.087250	0.992318	-0.988924	-0.127371	0.076202
433	1047624639													0.269189	-1.244110	0.151273	0.105408	-0.992017	-0.069213	0.088664	-0.059948	0.994256	-0.990469	-0.110939	0.081637
434	1047641306													0.249020	-1.256513	0.211238	0.104706	-0.992950	-0.055554	0.089022	-0.046279	0.994954	-0.990511	-0.109124	0.083549
435	1047657973													0.206431	-1.027419	0.183365	0.104313	-0.993633	-0.042563	0.089239	-0.033273	0.995454	-0.990533	-0.107637	0.085200
436	1047674640													0.197317	-1.020573	0.145753	0.102833	-0.994245	-0.030038	0.089233	-0.020856	0.995792	-0.990688	-0.105081	0.086575
437	1047691307													0.186547	-1.224648	0.109107	0.102869	-0.994537	-0.017715	0.088665	-0.008571	0.996025	-0.990735	-0.104031	0.087299
438	1047707974													0.147184	-1.261949	-0.020711	0.106251	-0.994322	-0.005819	0.087277	0.003496	0.996178	-0.990502	-0.106353	0.087153
439	1047724641													0.241543	-0.905798	-0.235693	0.112239	-0.993664	0.005902	0.084988	0.015517	0.996261	-0.990040	-0.111317	0.086191
440	1047741308													0.430794	-0.425505	-0.513221	0.118310	-0.992817	0.017779	0.082228	0.027639	0.996230	-0.989566	-0.116403	0.084907
441	1047757975													0.532407	-0.252251	-0.729038	0.123026	-0.991966	0.029478	0.079745	0.039489	0.996033	-0.989194	-0.120187	0.083963
442	1047774642													0.566473	-0.294105	-0.985074	0.125616	-0.991234	0.040945	0.078179	0.051034	0.995632	-0.988994	-0.121866	0.083904
443	1047791309													0.431380	-0.585340	-1.012841	0.124990	-0.990833	0.051253	0.077876	0.061296	0.995077	-0.989097	-0.120384	0.084824
444	1047807976													0.246854	-0.903988	-0.889430	0.123424	-0.990484	0.060895	0.078692	0.070940	0.994372	-0.989229	-0.117937	0.086699
445	1047824643													0.211500	-1.127568	-0.831724	0.120204	-0.990300	0.069686	0.080660	0.079706	0.993550	-0.989467	-0.113808	0.089458
446	1047841310													0.170774	-1.420507	-0.697039	0.114305	-0.990463	0.076921	0.083522	0.086736	0.992724	-0.989928	-0.107049	0.092640
447	1047857977													0.305647	-1.610970	-0.313689	0.106180	-0.990951	0.082110	0.086505	0.091470	0.992043	-0.990577	-0.098232	0.095434
448	1047874644													0.129659	-0.230829	0.989508	0.101790	-0.991020	0.086713	0.089635	0.095947	0.991342	-0.990759	-0.093136	0.098597
449	1047891311													-1.097976	-0.100177	4.331594	0.098887	-0.990811	0.092279	0.098554	0.102029	0.989887	-0.990206	-0.088793	0.107737
451	1047924645													-0.760654	-1.812858	2.847153	0.108297	-0.990705	0.082311	0.121726	0.095390	0.987969	-0.986638	-0.096975	0.130925
453	1047957979													0.954140	1.842360	1.167612	0.118958	-0.991253	0.057156	0.125702	0.072137	0.989442	-0.984910	-0.110517	0.133184
466	1048174650													-0.652734	-0.326938	1.319767	0.090020	-0.992249	0.085665	0.116759	0.095936	0.988516	-0.989072	-0.078984	0.124490
467	1048191317													-0.453839	-0.089541	0.749205	0.095088	-0.991767	0.085765	0.112710	0.096328	0.988948	-0.989068	-0.084371	0.120942
468	1048207984													-0.563035	0.947106	-0.107917	0.099298	-0.991306	0.086326	0.107315	0.096917	0.989490	-0.989254	-0.088990	0.116005
469	1048224651													-0.731983	1.467944	-0.572989	0.096263	-0.991391	0.088753	0.101375	0.098468	0.989963	-0.990180	-0.086300	0.109981
470	1048241318													-1.003437	1.148961	-0.644888	0.089400	-0.991666	0.092767	0.095936	0.101281	0.990221	-0.991365	-0.079626	0.104191
471	1048257985													-1.258265	0.461707	-0.609175	0.083832	-0.991678	0.097705	0.091626	0.105306	0.990210	-0.992258	-0.074059	0.099692
472	1048274652													-1.142576	0.218027	-0.444882	0.081167	-0.991355	0.103086	0.088411	0.110181	0.989972	-0.992772	-0.071240	0.096589
473	1048291319													-0.875760	0.367600	-0.327498	0.081220	-0.990823	0.108038	0.086253	0.114977	0.989616	-0.992957	-0.071058	0.094800
474	1048307986													-0.537335	0.506144	-0.384032	0.081812	-0.990304	0.112268	0.085005	0.119168	0.989229	-0.993016	-0.071387	0.093930
475	1048324653													-0.294103	0.222933	-0.637604	0.080638	-0.990001	0.115740	0.084487	0.122489	0.988867	-0.993156	-0.069961	0.093520
476	1048341320													-0.328715	-0.232372	-0.862966	0.079290	-0.989768	0.118628	0.084419	0.125242	0.988528	-0.993271	-0.068366	0.093485
477	1048357987													-0.297084	-0.393134	-1.112459	0.080105	-0.989454	0.120683	0.084786	0.127397	0.988221	-0.993174	-0.068930	0.094097
478	1048374654													-0.578423	-0.263769	-1.299872	0.082775	-0.989031	0.122337	0.085645	0.129364	0.987892	-0.992881	-0.071295	0.095413
479	1048391321													-0.759111	0.031392	-1.396605	0.085392	-0.988684	0.123337	0.087081	0.130722	0.987587	-0.992535	-0.073591	0.097258
480	1048407988													-0.935993	-0.138402	-1.306347	0.085206	-0.988669	0.123587	0.089228	0.131111	0.987344	-0.992360	-0.073100	0.099389
481	1048424655													-1.032713	-0.496132	-1.051106	0.084378	-0.988750	0.123504	0.092329	0.131171	0.987051	-0.992147	-0.071882	0.102358
482	1048441322													-1.156238	-0.694248	-0.811672	0.085604	-0.988848	0.121865	0.096478	0.129967	0.986813	-0.991647	-0.072718	0.106528
483	1048457989													-1.173800	-0.615590	-0.630131	0.089279	-0.988847	0.119205	0.101206	0.128070	0.986588	-0.990851	-0.076018	0.111512
484	1048474656													-1.309842	-0.289309	-0.461494	0.093630	-0.988755	0.116609	0.106209	0.126374	0.986280	-0.989926	-0.079961	0.116847
486	1048507990													-1.272911	-0.126310	0.045364	0.101363	-0.988757	0.109935	0.115281	0.121434	0.985882	-0.988148	-0.087259	0.126294
487	1048524657													-1.000754	-0.128347	0.265976	0.104482	-0.988984	0.104857	0.118625	0.117075	0.986013	-0.987427	-0.090581	0.129550
488	1048541324													-0.638078	-0.242279	0.397237	0.104971	-0.989415	0.100196	0.120678	0.112681	0.986276	-0.987126	-0.091439	0.131229
489	1048557991													-0.678230	-0.378656	0.437234	0.104283	-0.989874	0.096303	0.121492	0.108785	0.986613	-0.987099	-0.091187	0.131606
490	1048574658													-0.785544	-0.577570	0.273488	0.103304	-0.990190	0.094087	0.121142	0.106414	0.986915	-0.987245	-0.090555	0.130946
491	1048591325													-0.972535	-0.586335	0.264997	0.102407	-0.990260	0.094325	0.119764	0.106408	0.987084	-0.987507	-0.089788	0.129495
492	1048607992													-1.358472	-0.630296	0.306609	0.101396	-0.990169	0.096357	0.118209	0.108162	0.987080	-0.987798	-0.088696	0.128014
493	1048624659													-1.834688	-0.702828	0.503085	0.098608	-0.990298	0.097906	0.117811	0.109311	0.987001	-0.988128	-0.085792	0.127447
494	1048641326													-1.750147	-0.457607	1.652560	0.093512	-0.991120	0.094534	0.118181	0.105328	0.987390	-0.988579	-0.081160	0.126981
496	1048674660													0.129023	-1.976092	5.668606	0.076008	-0.993179	0.088421	0.110208	0.096503	0.989213	-0.990998	-0.065443	0.116791
497	1048691327													-0.318997	-1.006054	3.878476	0.096777	-0.991244	0.089830	0.104125	0.099842	0.989540	-0.989845	-0.086411	0.112875
498	1048707994													1.095314	2.169706	1.824202	0.117219	-0.988415	0.096415	0.097311	0.108049	0.989372	-0.988327	-0.106591	0.108849
504	1048807996													-0.440234	2.958390	-0.579505	0.094583	-0.988581	0.117308	0.092590	0.126061	0.987692	-0.991202	-0.082558	0.103456
505	1048824663													0.024303	2.909816	-0.561314	0.096165	-0.989532	0.107604	0.085432	0.115911	0.989579	-0.991692	-0.085970	0.095684
506	1048841330													0.758129	3.073282	-0.389448	0.101112	-0.990095	0.097410	0.075297	0.105247	0.991591	-0.992021	-0.092927	0.085193
507	1048857997													1.420918	3.030790	0.102403	0.104561	-0.990575	0.088474	0.064255	0.095504	0.993353	-0.992441	-0.098181	0.073636
508	1048874664													1.815542	2.561735	0.847995	0.104193	-0.991130	0.082493	0.054432	0.088503	0.994588	-0.993067	-0.099138	0.063170
509	1048891331													1.771896	1.444079	0.886652	0.105463	-0.991094	0.081306	0.047940	0.086734	0.995077	-0.993267	-0.101046	0.056660
527	1049191337													-0.352520	-0.092375	-0.482426	0.125303	-0.967238	0.220793	0.105075	0.234233	0.966485	-0.986539	-0.097904	0.130983
528	1049208004													-0.340081	-0.358985	-0.256499	0.123247	-0.965609	0.228930	0.100308	0.241628	0.965170	-0.987294	-0.095991	0.126638
536	1049341340													0.816975	-1.464997	-0.178198	0.136553	-0.949279	0.283237	0.059486	0.293256	0.954181	-0.988845	-0.113447	0.096513
537	1049358007													0.637060	-2.049523	-0.183257	0.132024	-0.947176	0.292279	0.059927	0.301947	0.951439	-0.989433	-0.108097	0.096626
538	1049374674													0.797913	-2.215245	0.124341	0.125280	-0.945539	0.300434	0.061025	0.309591	0.948910	-0.990243	-0.100545	0.096487
539	1049391341													0.443426	-0.647542	1.788733	0.118589	-0.942872	0.311333	0.063426	0.320099	0.945259	-0.990916	-0.092351	0.097763
540	1049408008													-1.191032	-0.867020	5.918947	0.102057	-0.942049	0.319576	0.073468	0.327514	0.941986	-0.992062	-0.072658	0.102635
541	1049424675													-1.889279	-2.149920	6.889223	0.096269	-0.942152	0.321064	0.086297	0.329248	0.940292	-0.991607	-0.062814	0.113001
542	1049441342													-1.683433	0.070864	3.050764	0.134701	-0.940115	0.313111	0.095569	0.326844	0.940234	-0.986267	-0.096727	0.133872
543	1049458009													0.439205	4.368004	0.342933	0.155024	-0.941538	0.299123	0.103512	0.316597	0.942895	-0.982473	-0.115209	0.146541
544	1049474676													1.103857	4.936291	-0.697773	0.145083	-0.946148	0.289405	0.107219	0.305812	0.946036	-0.983593	-0.106224	0.145813
545	1049491343													0.675816	1.557236	-1.867942	0.125849	-0.951046	0.282267	0.106257	0.295814	0.949317	-0.986343	-0.089477	0.138283
546	1049508010													0.568198	-0.182128	-1.502065	0.115572	-0.953765	0.277444	0.103928	0.289394	0.951552	-0.987847	-0.081138	0.132568
547	1049524677													1.345421	1.445511	-0.992304	0.122155	-0.953116	0.276853	0.102925	0.289603	0.951597	-0.987160	-0.087747	0.133476
548	1049541344													2.022481	3.839233	-1.761262	0.137918	-0.950023	0.280062	0.104548	0.295149	0.949714	-0.984910	-0.101703	0.140029
549	1049558011													1.721261	4.186954	-2.128470	0.135565	-0.948889	0.285012	0.109486	0.300254	0.947555	-0.984701	-0.097250	0.144594
550	1049574678													0.633655	2.354537	-0.416630	0.112210	-0.950370	0.290183	0.116902	0.302625	0.945913	-0.986784	-0.072219	0.145057
551	1049591345													-0.455472	0.888613	2.009464	0.095925	-0.951297	0.292972	0.123715	0.303441	0.944785	-0.987670	-0.054383	0.146798
552	1049608012													-0.802379	0.590260	1.657615	0.101331	-0.951544	0.290337	0.127337	0.301844	0.944815	-0.986670	-0.058768	0.151753
553	1049624679													-0.670692	0.790835	-0.097754	0.107729	-0.952521	0.284778	0.127336	0.297306	0.946253	-0.985992	-0.065676	0.153318
554	1049641346													-0.916236	0.650832	-0.947568	0.099487	-0.954861	0.279898	0.124517	0.291030	0.948576	-0.987217	-0.059519	0.147850
555	1049658013													-1.616791	0.309386	-0.639568	0.089514	-0.957026	0.275841	0.119419	0.285268	0.950979	-0.988800	-0.052186	0.139822
556	1049674680													-1.780892	0.859341	-0.603639	0.093727	-0.957801	0.271721	0.113168	0.281402	0.952893	-0.989145	-0.058562	0.134767
557	1049691347													-1.454024	1.872601	-1.655829	0.102185	-0.958294	0.266892	0.106964	0.277326	0.954803	-0.988998	-0.069019	0.130842
558	1049708014													-1.244861	2.500231	-1.852078	0.099977	-0.959673	0.262739	0.101200	0.272500	0.956819	-0.989830	-0.069071	0.124363
559	1049724681													-1.128178	2.060462	-1.298617	0.090828	-0.961704	0.258602	0.095790	0.266908	0.958950	-0.991249	-0.062328	0.116365
560	1049741348													-0.908159	1.121128	-0.926301	0.082941	-0.963846	0.253222	0.090924	0.260356	0.961222	-0.992398	-0.056701	0.109231
561	1049758015													-0.379314	0.701329	-0.600348	0.078983	-0.965984	0.246246	0.087357	0.252774	0.963574	-0.993041	-0.054594	0.104350
562	1049774682													0.385704	0.716846	-0.436173	0.076528	-0.968269	0.237906	0.085663	0.244108	0.965957	-0.993381	-0.053543	0.101626
563	1049791349													0.409644	0.585907	-0.568158	0.073281	-0.970753	0.228624	0.085720	0.234523	0.968324	-0.993621	-0.051362	0.100399
564	1049808016													0.200371	0.081181	-0.712146	0.071152	-0.973052	0.219336	0.087223	0.225120	0.970419	-0.993645	-0.049916	0.100890
565	1049824683													-0.109823	-0.441700	-0.927838	0.071331	-0.974960	0.210631	0.089877	0.216593	0.972116	-0.993395	-0.050411	0.103076
566	1049841350													-0.077441	-0.470228	-1.110458	0.074019	-0.976380	0.202986	0.093258	0.209429	0.973367	-0.992887	-0.053118	0.106557
567	1049858017													-0.144755	-0.273394	-1.241362	0.077366	-0.977547	0.195999	0.097174	0.203045	0.974336	-0.992256	-0.056335	0.110701
568	1049874684													-0.325180	-0.133904	-1.188779	0.079291	-0.978679	0.189474	0.101558	0.197014	0.975126	-0.991665	-0.058076	0.115014
569	1049891351													-0.660063	-0.155350	-0.858377	0.079814	-0.979794	0.183396	0.106378	0.191304	0.975749	-0.991117	-0.058369	0.119497
570	1049908018													-0.882325	-0.220824	-0.464247	0.080988	-0.980917	0.176757	0.111616	0.185150	0.976351	-0.990446	-0.059343	0.124481
571	1049924685													-0.941243	-0.181359	0.083700	0.081555	-0.982242	0.168963	0.117023	0.177792	0.977085	-0.989775	-0.059914	0.129444
572	1049941352													-0.707336	-0.114908	0.933930	0.082490	-0.983765	0.159379	0.122363	0.168712	0.978041	-0.989051	-0.061177	0.134293
573	1049958019													-0.518350	-0.259517	1.451415	0.082836	-0.985368	0.148955	0.127021	0.158689	0.979124	-0.988435	-0.062186	0.138307
574	1049974686													-0.557343	-0.789548	1.278529	0.079448	-0.987012	0.139627	0.130090	0.149138	0.980222	-0.988314	-0.059712	0.140249
575	1049991353													-0.769659	-1.501956	0.859613	0.079513	-0.988002	0.132400	0.131406	0.142050	0.981098	-0.988135	-0.060612	0.141125
576	1050008020													-0.897840	-1.618997	0.312923	0.082679	-0.988357	0.127731	0.131351	0.137860	0.981703	-0.987882	-0.064389	0.141220
577	1050024687													-1.507104	-1.262455	0.008892	0.087133	-0.988377	0.124578	0.130944	0.135331	0.982109	-0.987553	-0.069261	0.141214
578	1050041354													-2.037869	-0.746264	0.087540	0.087770	-0.988750	0.121119	0.131092	0.131995	0.982544	-0.987477	-0.070360	0.141203
579	1050058021													-0.583553	-0.396117	1.865228	0.082841	-0.990236	0.112119	0.130128	0.122290	0.983927	-0.988030	-0.066919	0.138988
580	1050074688													1.426829	-1.682726	5.428091	0.068490	-0.992132	0.104798	0.121915	0.112580	0.986135	-0.990175	-0.054764	0.128666
581	1050091355													1.939975	-2.717324	5.428232	0.065191	-0.992362	0.104732	0.109157	0.111417	0.987761	-0.991885	-0.052961	0.115587
582	1050108022													2.437698	0.391292	3.013713	0.085373	-0.990514	0.107670	0.096074	0.115745	0.988622	-0.991706	-0.074057	0.105044
583	1050124689													2.005357	4.496701	0.839848	0.099428	-0.987869	0.119285	0.083328	0.127725	0.988303	-0.991550	-0.088325	0.095017
584	1050141356													0.768984	4.956261	-1.562777	0.091409	-0.987343	0.129605	0.076150	0.136699	0.987681	-0.992898	-0.080414	0.087681
585	1050158023													-0.698851	2.236964	-2.148335	0.071970	-0.988307	0.134427	0.074334	0.139716	0.987398	-0.994633	-0.061071	0.083520
586	1050174690													-1.411645	1.324186	-0.787764	0.061302	-0.989274	0.132587	0.072944	0.136922	0.987893	-0.995450	-0.050889	0.080555
587	1050191357													-1.669910	2.625822	0.221296	0.066392	-0.990066	0.123944	0.069163	0.128486	0.989297	-0.995394	-0.057109	0.077006
588	1050208024													-1.470962	4.058085	-0.474761	0.080854	-0.990614	0.110212	0.061781	0.115342	0.991403	-0.994809	-0.073350	0.070527
589	1050224691													-0.494442	4.181626	-0.402249	0.083511	-0.991940	0.095289	0.050999	0.099752	0.993704	-0.995201	-0.078125	0.058919
590	1050241358													0.990051	3.603613	0.949282	0.078291	-0.993677	0.080474	0.039506	0.083751	0.995703	-0.996147	-0.074776	0.045813
591	1050258025													2.337999	2.471392	1.658512	0.074199	-0.994941	0.067724	0.030760	0.070162	0.997061	-0.996769	-0.071898	0.035810
592	1050274692													2.763159	0.358630	1.518326	0.070573	-0.995599	0.061658	0.027689	0.063743	0.997582	-0.997122	-0.068695	0.032065
599	1050391361													1.222378	0.614745	-1.368488	0.079907	-0.995430	0.052296	0.077523	0.058511	0.995272	-0.993783	-0.075475	0.081844
600	1050408028													1.006141	0.324892	-0.531633	0.072978	-0.996116	0.049257	0.082442	0.055245	0.995063	-0.993920	-0.068557	0.086154
601	1050424695													0.801102	0.222004	-0.657206	0.074460	-0.996125	0.046798	0.086178	0.053181	0.994859	-0.993493	-0.070045	0.089804
604	1050474696													0.659173	-1.044900	-1.204293	0.068277	-0.996457	0.049111	0.085479	0.054887	0.994827	-0.993998	-0.063726	0.088924
605	1050491363													0.719878	-1.385806	-1.099800	0.069259	-0.996209	0.052642	0.081451	0.058240	0.994974	-0.994268	-0.064623	0.085175
606	1050508030													0.492727	-1.241563	-1.278261	0.075736	-0.995523	0.056549	0.076313	0.062332	0.995134	-0.994203	-0.071052	0.080692
607	1050524697													0.376348	-0.589460	-1.430899	0.082983	-0.994744	0.059986	0.070490	0.065902	0.995333	-0.994055	-0.078367	0.075589
608	1050541364													0.410631	0.007660	-1.249275	0.088524	-0.994122	0.062328	0.064139	0.068133	0.995612	-0.994007	-0.084138	0.069793
609	1050558031													0.623457	0.429064	-0.850604	0.091916	-0.993683	0.064390	0.057105	0.069818	0.995924	-0.994128	-0.087865	0.063162
610	1050574698													0.719409	0.605023	-0.215595	0.093659	-0.993300	0.067702	0.049522	0.072565	0.996133	-0.994372	-0.089944	0.055987
611	1050591365													0.756331	0.596789	0.643464	0.094642	-0.992947	0.071403	0.042465	0.075686	0.996227	-0.994605	-0.091253	0.049329
612	1050608032													0.833893	0.071604	1.191174	0.094425	-0.992738	0.074536	0.037322	0.078348	0.996227	-0.994832	-0.091287	0.044449
613	1050624699													1.094345	-0.765007	0.927443	0.093578	-0.992671	0.076463	0.035100	0.080042	0.996173	-0.994993	-0.090537	0.042333
614	1050641366													1.318724	-1.372481	-0.006572	0.093681	-0.992558	0.077795	0.035577	0.081426	0.996044	-0.994966	-0.090543	0.042940
615	1050658033													1.592571	-1.584343	-0.742969	0.090705	-0.992738	0.079020	0.038072	0.082745	0.995843	-0.995150	-0.087320	0.045301
616	1050674700													1.855108	-0.436030	-0.080804	0.086627	-0.992960	0.080781	0.041038	0.084574	0.995572	-0.995395	-0.082929	0.048076
617	1050691367													0.497629	0.446636	2.972268	0.080256	-0.992886	0.087961	0.047866	0.091983	0.994609	-0.995624	-0.075613	0.054908
618	1050708034													-0.333168	-0.885159	7.534830	0.053346	-0.994342	0.091855	0.062943	0.095151	0.993471	-0.996590	-0.047217	0.067663
619	1050724701													-0.620585	-2.618133	7.105509	0.062019	-0.994510	0.084286	0.076175	0.088919	0.993122	-0.995164	-0.055172	0.081271
620	1050741368													-0.519354	0.035960	2.049902	0.105955	-0.991711	0.072680	0.085044	0.081862	0.993009	-0.990728	-0.099034	0.093012
621	1050758035													0.877587	3.321483	-0.045351	0.115615	-0.991483	0.059962	0.091320	0.070721	0.993307	-0.989087	-0.109366	0.098718
622	1050774702													0.445554	2.686985	-0.880821	0.102732	-0.993471	0.049622	0.093089	0.059269	0.993892	-0.990344	-0.097485	0.098570
623	1050791369													0.900246	0.367665	-1.094575	0.086359	-0.995303	0.043744	0.091453	0.051642	0.994469	-0.992058	-0.081881	0.095483
624	1050808036													1.309865	0.118118	-0.158336	0.079506	-0.996016	0.040386	0.089319	0.047469	0.994871	-0.992825	-0.075491	0.092738
625	1050824703													1.177175	2.098465	0.016876	0.088379	-0.995245	0.040954	0.088233	0.048775	0.994905	-0.992171	-0.084316	0.092124
626	1050841370													1.002671	4.175662	-0.840690	0.099743	-0.994044	0.043911	0.088986	0.052865	0.994629	-0.991026	-0.095300	0.093729
627	1050858037													0.586981	4.464912	-1.828560	0.102267	-0.993568	0.048620	0.092739	0.058186	0.993989	-0.990425	-0.097144	0.098093
