// Start Time: Unknown
// Update Rate: 100.0Hz
//Filter Profile: human (46.1)
// Option Flags: AHS Disabled ICC Disabled
// Firmware Version: 4.0.2
PacketCounter	SampleTimeFine	Year	Month	Day	Second	UTC_Nano	UTC_Year	UTC_Month	UTC_Day	UTC_Hour	UTC_Minute	UTC_Second	UTC_Valid	Acc_X	Acc_Y	Acc_Z	Mat[1][1]	Mat[1][2]	Mat[1][3]	Mat[2][1]	Mat[2][2]	Mat[2][3]	Mat[3][1]	Mat[3][2]	Mat[3][3]
1	1040441162													1.369882	4.309354	4.167670	0.086282	-0.847350	0.523978	-0.276082	0.485006	0.829788	-0.957254	-0.216256	-0.192091
2	1040457829													1.127972	2.587504	1.918827	0.095909	-0.857929	0.504737	-0.275877	0.464299	0.841616	-0.956396	-0.219964	-0.192152
3	1040474496													1.073126	1.249521	-0.709185	0.101146	-0.868810	0.484704	-0.273995	0.444035	0.853089	-0.956398	-0.219092	-0.193137
4	1040491163													0.336963	-0.742340	-2.308499	0.098110	-0.876357	0.471563	-0.271133	0.432386	0.859959	-0.957529	-0.212227	-0.195188
5	1040507830													0.804210	-4.597714	-0.346898	0.080499	-0.881045	0.466132	-0.266959	0.431508	0.861704	-0.960340	-0.193805	-0.200467
6	1040524497													3.763520	-6.956798	4.628825	0.060485	-0.878260	0.474343	-0.259213	0.445089	0.857149	-0.963924	-0.174800	-0.200735
7	1040541164													7.787340	-2.564289	3.122457	0.054307	-0.867896	0.493769	-0.251417	0.466682	0.847937	-0.966354	-0.170191	-0.192860
8	1040557831													6.079219	3.562988	2.528275	0.057255	-0.852829	0.519041	-0.245550	0.491895	0.835311	-0.967692	-0.175276	-0.181249
9	1040574498													0.359908	2.916512	3.142850	0.047979	-0.842876	0.535965	-0.247959	0.509735	0.823824	-0.967582	-0.172424	-0.184542
10	1040591165													-0.748511	-4.945264	-0.897430	0.029364	-0.822660	0.567774	-0.256263	0.542839	0.799784	-0.966161	-0.168985	-0.194878
11	1040607832													0.479728	-8.595898	-4.921840	0.003845	-0.791294	0.611423	-0.263219	0.589066	0.764014	-0.964729	-0.163876	-0.206018
12	1040624499													2.070836	-6.572914	-4.931544	-0.020474	-0.766798	0.641562	-0.264376	0.623007	0.736184	-0.964202	-0.154541	-0.215478
13	1040641166													0.340649	-4.222719	-3.591602	-0.046418	-0.738348	0.672821	-0.258890	0.659425	0.705787	-0.964791	-0.141425	-0.221760
14	1040657833													-2.986651	-2.307081	-0.633987	-0.070959	-0.707379	0.703264	-0.248928	0.695292	0.674243	-0.965919	-0.127218	-0.225423
15	1040674500													-5.148138	-1.135372	0.860217	-0.087035	-0.681905	0.726244	-0.238604	0.722060	0.649382	-0.967209	-0.116766	-0.225550
16	1040691167													-5.085977	-0.797223	1.194318	-0.100303	-0.667663	0.737676	-0.228413	0.737065	0.636052	-0.968384	-0.104697	-0.226433
17	1040707834													-3.510360	-0.744504	1.105890	-0.111861	-0.663140	0.740090	-0.218054	0.742993	0.632783	-0.969505	-0.090595	-0.227712
18	1040724501													-1.842729	-1.563189	0.619123	-0.122872	-0.664961	0.736701	-0.207112	0.743163	0.636250	-0.970570	-0.074402	-0.229036
19	1040741168													-0.682572	-2.884848	0.141863	-0.134845	-0.665027	0.734545	-0.194731	0.744645	0.638423	-0.971543	-0.056951	-0.229913
20	1040757835													0.249667	-3.676586	-0.045967	-0.146637	-0.660069	0.736754	-0.180910	0.750138	0.636053	-0.972507	-0.040017	-0.229411
21	1040774502													0.434393	-2.915078	-0.623835	-0.158528	-0.652187	0.741297	-0.164940	0.757734	0.631375	-0.973480	-0.022179	-0.227694
22	1040791169													0.872977	-1.789735	-0.835626	-0.172251	-0.643192	0.746079	-0.146235	0.765704	0.626348	-0.974138	-0.001213	-0.225951
23	1040807836													1.008092	-1.091702	-0.421127	-0.186879	-0.632401	0.751762	-0.125563	0.774343	0.620183	-0.974326	0.021505	-0.224114
24	1040824503													0.625427	-0.710602	0.097529	-0.200614	-0.619865	0.758631	-0.104224	0.783484	0.612610	-0.974110	0.043831	-0.221783
25	1040841170													0.280383	-0.317199	0.151818	-0.213528	-0.606363	0.765983	-0.083490	0.792523	0.604099	-0.973363	0.065041	-0.219851
26	1040857837													-0.071440	0.013941	0.000382	-0.226311	-0.591671	0.773763	-0.064146	0.801702	0.594273	-0.971941	0.084856	-0.219387
27	1040874504													-0.186661	0.140283	-0.009211	-0.239195	-0.575187	0.782270	-0.045838	0.811447	0.582625	-0.969889	0.103503	-0.220459
28	1040891171													-0.624591	0.877357	-0.085699	-0.250847	-0.557717	0.791219	-0.028386	0.821239	0.569878	-0.967611	0.120493	-0.221837
29	1040907838													-0.863950	1.430173	-0.143040	-0.260565	-0.541276	0.799453	-0.011600	0.829753	0.558010	-0.965387	0.136124	-0.222483
30	1040924505													-0.952189	1.666968	-0.146840	-0.268473	-0.525129	0.807565	0.005210	0.837539	0.546352	-0.963273	0.150888	-0.222121
31	1040941172													-0.591308	1.584898	-0.212282	-0.274244	-0.510224	0.815145	0.021456	0.844186	0.535620	-0.961421	0.164380	-0.220565
32	1040957839													-0.243098	1.852122	-0.140694	-0.277621	-0.494752	0.823497	0.038036	0.850860	0.524014	-0.959938	0.176799	-0.217398
33	1040974506													-0.025390	1.285581	0.160281	-0.277456	-0.477954	0.833414	0.055221	0.858104	0.510498	-0.959150	0.187662	-0.211694
34	1040991173													-0.241269	0.809515	-0.198308	-0.277392	-0.454639	0.846379	0.074520	0.868115	0.490737	-0.957863	0.199199	-0.206928
35	1041007840													-0.467804	0.887415	-0.087751	-0.280348	-0.430185	0.858106	0.094488	0.877246	0.470650	-0.955237	0.213026	-0.205287
36	1041024507													0.150351	1.218548	0.004594	-0.283964	-0.408819	0.867313	0.113550	0.883845	0.453789	-0.952088	0.227343	-0.204559
37	1041041174													-0.165637	1.290553	-0.198062	-0.286914	-0.390871	0.874586	0.131521	0.888252	0.440125	-0.948885	0.241304	-0.203445
38	1041057841													-0.947918	1.434291	-0.159184	-0.289286	-0.377428	0.879694	0.147831	0.890348	0.430613	-0.945759	0.254616	-0.201770
39	1041074508													-1.539117	1.913846	0.062450	-0.290794	-0.367281	0.883484	0.162486	0.891017	0.423895	-0.942888	0.266820	-0.199424
40	1041091175													-1.751569	2.162855	0.147972	-0.291185	-0.358795	0.886835	0.175576	0.891217	0.418217	-0.940417	0.277486	-0.196513
41	1041107842													-1.717805	2.070902	0.178428	-0.291053	-0.350698	0.890112	0.187673	0.891386	0.412566	-0.938119	0.287128	-0.193624
42	1041124509													-1.476437	2.035530	0.260811	-0.290811	-0.343491	0.892996	0.198616	0.891330	0.407532	-0.935938	0.295878	-0.190986
43	1041141176													-1.191372	2.122320	0.459571	-0.290572	-0.338768	0.894877	0.207895	0.890536	0.404630	-0.933996	0.303614	-0.188336
44	1041157843													-0.977021	2.300127	0.468084	-0.290018	-0.336055	0.896079	0.215681	0.889281	0.403311	-0.932401	0.310235	-0.185427
45	1041174510													-0.884394	2.503773	0.094554	-0.288824	-0.332972	0.897614	0.222627	0.888511	0.401230	-0.931138	0.315718	-0.182495
46	1041191177													-0.980386	3.150295	0.556097	-0.287496	-0.327433	0.900074	0.229460	0.888835	0.396637	-0.929889	0.320563	-0.180404
47	1041207844													-0.718139	4.504598	2.632690	-0.285951	-0.321142	0.902829	0.235490	0.889725	0.391067	-0.928858	0.324433	-0.178793
48	1041224511													-0.172426	4.751137	2.516115	-0.279875	-0.316812	0.906256	0.239940	0.890940	0.385558	-0.929569	0.325355	-0.173336
49	1041241178													0.672766	5.137121	1.321902	-0.270797	-0.316615	0.909079	0.241093	0.891959	0.382469	-0.931957	0.322744	-0.165206
50	1041257845													0.689029	5.827174	1.283041	-0.260048	-0.316523	0.912244	0.239991	0.893915	0.378576	-0.935296	0.317379	-0.156498
51	1041274512													1.004039	6.555889	2.338252	-0.247386	-0.320561	0.914353	0.235172	0.895601	0.377614	-0.939944	0.308446	-0.146172
52	1041291179													0.490800	6.470595	2.327214	-0.231102	-0.329365	0.915484	0.225170	0.897303	0.379665	-0.946515	0.293881	-0.133206
53	1041307846													-0.059712	6.245712	0.962208	-0.214237	-0.346636	0.913206	0.207916	0.897305	0.389377	-0.954397	0.273289	-0.120165
54	1041324513													0.078474	5.887503	-0.215950	-0.194560	-0.372003	0.907612	0.183265	0.895215	0.406207	-0.963618	0.245365	-0.105997
55	1041341180													0.307783	5.368483	-1.500038	-0.171060	-0.394979	0.902624	0.153848	0.894181	0.420441	-0.973175	0.210788	-0.092192
56	1041357847													-0.784344	3.583959	-0.789840	-0.148302	-0.413287	0.898443	0.122128	0.893881	0.431348	-0.981372	0.173695	-0.082091
57	1041374514													-2.229687	1.138631	2.344496	-0.133127	-0.432860	0.891577	0.088139	0.890849	0.445667	-0.987172	0.137913	-0.080444
58	1041391181													-1.339624	-0.678037	5.293039	-0.119850	-0.456227	0.881755	0.053628	0.883886	0.464619	-0.991342	0.102972	-0.081467
59	1041407848													0.536045	-3.161954	5.845025	-0.106425	-0.481351	0.870043	0.021318	0.873707	0.485986	-0.994092	0.070268	-0.082723
60	1041424515													1.191789	-4.106451	4.161500	-0.090729	-0.502030	0.860078	-0.008298	0.863991	0.503439	-0.995841	0.038540	-0.082555
61	1041441182													-0.047684	-3.314828	2.082243	-0.071694	-0.518826	0.851868	-0.038587	0.854869	0.517406	-0.996680	0.004224	-0.081309
62	1041457849													-1.110571	-1.709563	1.075385	-0.051191	-0.538083	0.841336	-0.071238	0.842262	0.534341	-0.996145	-0.032582	-0.081448
63	1041474516													-0.825473	-0.908994	0.655401	-0.029959	-0.560664	0.827501	-0.104400	0.825100	0.555257	-0.994084	-0.069756	-0.083252
64	1041491183													-0.144759	-1.592791	0.714548	-0.008990	-0.585219	0.810825	-0.137123	0.803920	0.578714	-0.990513	-0.105980	-0.087474
65	1041507850													-0.217909	-3.030527	0.788087	0.012419	-0.607792	0.793999	-0.168296	0.781462	0.600827	-0.985658	-0.141089	-0.092584
66	1041524517													-0.409954	-4.218492	-0.025574	0.033573	-0.627333	0.778027	-0.195726	0.759265	0.620651	-0.980084	-0.173117	-0.097295
67	1041541184													-0.836155	-4.385547	-1.180120	0.052096	-0.645681	0.761828	-0.218681	0.736973	0.639570	-0.974405	-0.199916	-0.102804
68	1041557851													-0.712996	-4.281940	-2.222401	0.069221	-0.664060	0.744468	-0.237641	0.713799	0.658800	-0.968883	-0.222519	-0.108398
69	1041574518													-0.103674	-4.755642	-3.455664	0.086357	-0.682837	0.725449	-0.253458	0.689153	0.678843	-0.963484	-0.242493	-0.113557
70	1041591185													0.661679	-4.718209	-4.333665	0.102228	-0.701222	0.705576	-0.265616	0.664298	0.698682	-0.958644	-0.258837	-0.118346
71	1041607852													0.579601	-3.979760	-4.426660	0.117377	-0.716896	0.687228	-0.274127	0.641736	0.716260	-0.954503	-0.272461	-0.121195
72	1041624519													0.652990	-3.637524	-4.746598	0.131649	-0.730174	0.670459	-0.279856	0.621457	0.731759	-0.950973	-0.283967	-0.122529
73	1041641186													1.129333	-3.684506	-5.534628	0.141378	-0.740299	0.657244	-0.283712	0.605764	0.743342	-0.948430	-0.291560	-0.124390
74	1041657853													0.747355	-3.549440	-5.645930	0.145445	-0.749320	0.646039	-0.286220	0.593193	0.752463	-0.947061	-0.294351	-0.128194
75	1041674520													0.527704	-3.294235	-5.612953	0.145399	-0.758120	0.635700	-0.286833	0.582632	0.760438	-0.946882	-0.292907	-0.132740
76	1041691187													0.446047	-2.760809	-4.917878	0.141704	-0.767745	0.624890	-0.285800	0.572648	0.768370	-0.947754	-0.287475	-0.138275
77	1041707854													-0.028660	-1.971028	-3.772155	0.134979	-0.778600	0.612831	-0.283111	0.562402	0.776886	-0.949541	-0.278363	-0.144518
78	1041724521													-1.181638	-1.394754	-1.824323	0.124416	-0.790952	0.599096	-0.279251	0.551469	0.786066	-0.952124	-0.265098	-0.152262
79	1041741188													-1.904160	0.123277	1.208203	0.114112	-0.808629	0.577146	-0.275371	0.532433	0.800428	-0.954541	-0.250268	-0.161916
80	1041757855													-0.883695	4.115643	4.713623	0.106573	-0.827848	0.550737	-0.273617	0.508089	0.816688	-0.955916	-0.237727	-0.172365
81	1041774522													1.585313	9.590447	7.296625	0.101938	-0.837130	0.537421	-0.277529	0.494854	0.823467	-0.955294	-0.233092	-0.181883
82	1041791189													1.230884	9.067737	6.429184	0.093241	-0.837780	0.537987	-0.284664	0.495354	0.820726	-0.954082	-0.229670	-0.192299
83	1041807856													-0.228360	5.622186	4.593213	0.093693	-0.842203	0.530958	-0.289980	0.487097	0.823801	-0.952435	-0.231152	-0.198584
84	1041824523													0.617270	2.405479	1.062872	0.101085	-0.849789	0.517340	-0.292276	0.471691	0.831915	-0.950977	-0.235300	-0.200692
85	1041841190													1.821814	1.041270	-1.686400	0.105878	-0.858979	0.500944	-0.291051	0.454943	0.841615	-0.950831	-0.234909	-0.201838
86	1041857857													3.392091	-1.840056	-1.083451	0.098490	-0.867450	0.487679	-0.288319	0.444169	0.848284	-0.952456	-0.224155	-0.206356
87	1041874524													6.103580	-6.139133	5.446203	0.080585	-0.867020	0.491713	-0.281196	0.453504	0.845732	-0.956261	-0.206421	-0.207257
88	1041891191													7.077138	-4.936335	4.245973	0.074487	-0.856032	0.511528	-0.274415	0.475554	0.835790	-0.958722	-0.202627	-0.199485
89	1041907858													2.352393	0.229449	2.641587	0.075162	-0.845197	0.529143	-0.271942	0.493156	0.826344	-0.959374	-0.206006	-0.192778
90	1041924525													2.513812	2.148151	4.112422	0.065191	-0.844015	0.532343	-0.276604	0.497289	0.822310	-0.958770	-0.200855	-0.201039
91	1041941192													3.471509	-6.182616	-2.369278	0.051874	-0.830909	0.553984	-0.283418	0.519673	0.805986	-0.957592	-0.198819	-0.208537
92	1041957859													0.693889	-11.891741	-6.589260	0.030256	-0.807708	0.588806	-0.287719	0.557105	0.779007	-0.957237	-0.192980	-0.215538
93	1041974526													1.524150	-9.403169	-6.709795	0.000431	-0.777028	0.629466	-0.286625	0.602959	0.744504	-0.958043	-0.180741	-0.222456
94	1041991193													-0.181229	-6.193869	-4.231677	-0.035141	-0.739139	0.672635	-0.279539	0.653455	0.703459	-0.959491	-0.163307	-0.229581
95	1042007860													-1.437755	-3.260830	-0.389100	-0.068028	-0.699559	0.711329	-0.266343	0.699839	0.662787	-0.961475	-0.144369	-0.233931
96	1042024527													-4.660332	-0.904119	2.427732	-0.093371	-0.663348	0.742463	-0.251019	0.737315	0.627181	-0.963468	-0.127812	-0.235357
97	1042041194													-5.929701	0.222040	2.896358	-0.114639	-0.644625	0.755855	-0.238033	0.756530	0.609100	-0.964468	-0.110092	-0.240170
98	1042057861													-3.741746	0.741767	1.680247	-0.132005	-0.639970	0.756976	-0.227384	0.762845	0.605280	-0.964817	-0.092224	-0.246219
99	1042074528													-1.358266	-0.693611	0.225368	-0.146880	-0.641994	0.752509	-0.217546	0.763099	0.608567	-0.964935	-0.074319	-0.251747
100	1042091195													0.207407	-2.400464	0.079543	-0.161850	-0.642078	0.749360	-0.206546	0.764594	0.610520	-0.964958	-0.055965	-0.256368
101	1042107862													0.117879	-2.812796	-0.109271	-0.175091	-0.637467	0.750319	-0.192746	0.769539	0.608818	-0.965501	-0.038022	-0.257608
102	1042124529													-0.266864	-1.932280	-0.369986	-0.188081	-0.628296	0.754897	-0.175833	0.777737	0.603497	-0.966286	-0.019230	-0.256753
103	1042141196													-0.572290	-0.907526	-0.709600	-0.200732	-0.618277	0.759895	-0.157699	0.785960	0.597828	-0.966870	0.000169	-0.255269
104	1042157863													-0.287402	-0.569043	-0.635843	-0.215093	-0.608293	0.764012	-0.139222	0.793432	0.592522	-0.966619	0.021080	-0.255350
105	1042174530													0.609290	-0.929419	-0.243649	-0.230239	-0.596327	0.769015	-0.120728	0.801644	0.585484	-0.965616	0.041960	-0.256564
106	1042191197													1.058141	-1.163503	-0.020065	-0.245051	-0.581072	0.776083	-0.101200	0.811448	0.575596	-0.964214	0.062511	-0.257651
107	1042207864													1.327370	-0.913572	-0.021441	-0.259257	-0.561460	0.785843	-0.080104	0.823360	0.561837	-0.962481	0.082711	-0.258437
108	1042224531													0.959471	-0.492372	-0.235501	-0.272345	-0.536789	0.798552	-0.056715	0.837436	0.543584	-0.960527	0.102752	-0.258516
109	1042241198													0.495998	-0.305660	-0.060684	-0.284299	-0.507831	0.813192	-0.031365	0.852665	0.521516	-0.958222	0.122761	-0.258340
110	1042257865													0.084431	0.291944	-0.485543	-0.293060	-0.478062	0.827993	-0.004839	0.866747	0.498725	-0.956082	0.142150	-0.256322
111	1042274532													0.157684	1.095913	-0.557926	-0.300518	-0.450511	0.840672	0.021617	0.877970	0.478226	-0.953531	0.161889	-0.254107
112	1042291199													0.182451	2.366816	-0.402623	-0.305944	-0.425667	0.851590	0.047556	0.886532	0.460218	-0.950861	0.181299	-0.250987
113	1042307866													0.326773	2.983320	-0.392783	-0.309079	-0.402440	0.861691	0.072398	0.893470	0.443250	-0.948277	0.199384	-0.247017
114	1042324533													-0.367858	3.491265	-0.367807	-0.310945	-0.378984	0.871599	0.095737	0.899905	0.425447	-0.945594	0.215735	-0.243538
115	1042341200													-1.432612	3.582610	-0.152731	-0.313078	-0.359492	0.879061	0.115962	0.904197	0.411072	-0.942621	0.230635	-0.241397
116	1042357867													-1.071718	3.367004	-0.066500	-0.316834	-0.343732	0.884005	0.133243	0.906649	0.400292	-0.939076	0.244613	-0.241457
117	1042374534													-0.820871	2.577482	0.638850	-0.320825	-0.327032	0.888888	0.149033	0.909377	0.388360	-0.935340	0.257069	-0.243012
118	1042391201													-1.007616	1.969106	0.480737	-0.322453	-0.309112	0.894692	0.163305	0.912840	0.374238	-0.932392	0.266782	-0.243868
119	1042407868													-1.193966	2.715688	-0.513623	-0.323809	-0.293139	0.899565	0.175525	0.915673	0.361570	-0.929698	0.274976	-0.245050
120	1042424535													-1.193415	3.216969	-0.643221	-0.325841	-0.280207	0.902946	0.185516	0.917552	0.351685	-0.927044	0.282104	-0.246994
121	1042441202													-1.130828	2.761264	-0.165623	-0.327401	-0.269726	0.905570	0.193290	0.919005	0.343610	-0.924904	0.287536	-0.248748
122	1042457869													-0.655955	2.265609	0.528335	-0.327936	-0.260363	0.908113	0.199835	0.920400	0.336050	-0.923322	0.291676	-0.249803
123	1042474536													-0.134427	2.226345	1.058447	-0.326638	-0.250064	0.911469	0.206968	0.922035	0.327133	-0.922210	0.295500	-0.249416
124	1042491203													0.137648	3.509972	2.121772	-0.324841	-0.235746	0.915916	0.215834	0.924402	0.314478	-0.920812	0.299841	-0.249402
125	1042507870													0.211209	5.173478	3.460746	-0.320216	-0.222783	0.920777	0.223683	0.926693	0.302004	-0.920558	0.302669	-0.246910
126	1042524537													1.163772	5.940815	2.389895	-0.313538	-0.218433	0.924111	0.225364	0.928261	0.295877	-0.922445	0.301030	-0.241818
127	1042541204													1.252755	6.659226	2.096174	-0.304638	-0.215487	0.927772	0.223296	0.930767	0.289503	-0.925924	0.295361	-0.235430
128	1042557871													1.567004	7.266521	2.945373	-0.294105	-0.216556	0.930917	0.216195	0.933675	0.285500	-0.931000	0.285227	-0.227780
129	1042574538													0.863328	6.890498	2.523725	-0.281273	-0.231758	0.931222	0.200080	0.934909	0.293110	-0.938538	0.268762	-0.216594
130	1042591205													1.801704	6.227149	0.918453	-0.267894	-0.262872	0.926893	0.174336	0.932950	0.314977	-0.947544	0.245972	-0.204104
131	1042607872													3.634445	5.710774	0.054075	-0.245782	-0.302874	0.920792	0.142282	0.928370	0.343345	-0.958826	0.215400	-0.185083
132	1042624539													3.391969	4.212197	-1.189353	-0.215050	-0.334116	0.917671	0.109824	0.925422	0.362674	-0.970408	0.178775	-0.162318
133	1042641206													1.480036	1.246876	-0.018088	-0.184057	-0.356629	0.915936	0.078330	0.923571	0.375342	-0.979790	0.140830	-0.142055
134	1042657873													-0.153229	-1.632142	2.605828	-0.159915	-0.373755	0.913638	0.046860	0.921631	0.385227	-0.986018	0.104417	-0.129868
135	1042674540													-0.016087	-3.819555	5.447299	-0.139363	-0.386753	0.911592	0.016544	0.919538	0.392653	-0.990103	0.069803	-0.121751
136	1042691207													1.184304	-5.563170	5.929536	-0.119381	-0.398276	0.909464	-0.010792	0.916481	0.399933	-0.992790	0.037930	-0.113709
137	1042707874													1.411979	-5.176976	3.782061	-0.097293	-0.403531	0.909779	-0.036445	0.914947	0.401926	-0.994588	0.005948	-0.103725
138	1042724541													-0.349747	-2.515421	1.441790	-0.071000	-0.403300	0.912309	-0.065542	0.914527	0.399180	-0.995321	-0.031453	-0.091364
139	1042741208													-1.978796	-0.104457	0.373027	-0.046836	-0.407847	0.911848	-0.097915	0.910328	0.402138	-0.994092	-0.070449	-0.082571
140	1042757875													-2.559087	0.580535	0.987255	-0.026407	-0.421914	0.906251	-0.130988	0.900211	0.415285	-0.991032	-0.107742	-0.079037
141	1042774542													-1.788931	-1.333286	1.467349	-0.007270	-0.439922	0.898007	-0.164872	0.886268	0.432836	-0.986288	-0.144910	-0.078974
142	1042791209													-1.346678	-3.632194	0.949098	0.014159	-0.455931	0.889902	-0.197184	0.871241	0.449507	-0.980264	-0.181839	-0.077567
143	1042807876													-1.945061	-5.104764	-0.044985	0.036517	-0.469499	0.882178	-0.226135	0.855986	0.464920	-0.973411	-0.216468	-0.074912
144	1042824543													-2.423188	-4.361813	-1.638378	0.057527	-0.483276	0.873576	-0.250998	0.839918	0.481184	-0.966277	-0.246947	-0.072983
145	1042841210													-1.490978	-4.439231	-3.548210	0.074128	-0.494572	0.865969	-0.271414	0.825574	0.494735	-0.959604	-0.271710	-0.073036
146	1042857877													-1.494838	-3.665509	-4.269155	0.088941	-0.507707	0.856927	-0.288287	0.810390	0.510057	-0.953404	-0.292406	-0.074289
147	1042874544													-1.490723	-3.095838	-4.638839	0.103816	-0.525614	0.844365	-0.300086	0.792836	0.530434	-0.948246	-0.308449	-0.075420
148	1042891211													-0.657053	-3.434569	-5.373585	0.119068	-0.545499	0.829610	-0.307039	0.774370	0.553244	-0.944219	-0.320597	-0.075287
149	1042907878													-0.078287	-3.507234	-6.104598	0.131751	-0.563475	0.815559	-0.310399	0.757906	0.573786	-0.941432	-0.328746	-0.075047
150	1042924545													0.510985	-3.433283	-6.785917	0.140813	-0.580175	0.802227	-0.310403	0.743573	0.592240	-0.940118	-0.332409	-0.075383
151	1042941212													0.827996	-3.112745	-6.925251	0.145797	-0.596922	0.788941	-0.306624	0.730928	0.609693	-0.940598	-0.330800	-0.076464
152	1042957879													0.980961	-2.359354	-6.510590	0.148715	-0.616247	0.773385	-0.299407	0.717313	0.629141	-0.942464	-0.325119	-0.077833
153	1042974546													0.431739	-1.286843	-5.321878	0.149802	-0.636581	0.756521	-0.290000	0.703212	0.649148	-0.945230	-0.316635	-0.079266
154	1042991213													-0.732781	-0.765423	-3.640940	0.145207	-0.655389	0.741202	-0.279772	0.691369	0.666135	-0.949022	-0.304095	-0.082967
155	1043007880													-1.467434	0.601734	0.269782	0.135708	-0.677876	0.722542	-0.269270	0.676601	0.685350	-0.953455	-0.287566	-0.090711
156	1043024547													0.778647	3.488835	6.412828	0.126190	-0.702325	0.700583	-0.260540	0.657971	0.706536	-0.957181	-0.271687	-0.099954
157	1043041214													5.617344	8.152778	10.606106	0.113465	-0.708220	0.696814	-0.259346	0.655915	0.708883	-0.959096	-0.261149	-0.109251
158	1043057881													5.260681	8.208009	10.420610	0.110563	-0.706881	0.698638	-0.264222	0.656746	0.706308	-0.958104	-0.262687	-0.114162
159	1043074548													2.922287	5.220681	5.485934	0.122836	-0.718384	0.684716	-0.268188	0.640243	0.719836	-0.955503	-0.272054	-0.114017
160	1043091215													1.507401	3.061039	1.664421	0.135612	-0.735209	0.664136	-0.269096	0.617797	0.738860	-0.953518	-0.278915	-0.114061
161	1043107882													1.050925	1.209080	-1.573198	0.142606	-0.749215	0.646793	-0.268382	0.599720	0.753861	-0.952699	-0.281092	-0.115552
162	1043124549													0.932298	-3.195293	1.404903	0.133849	-0.758398	0.637900	-0.267153	0.592248	0.760179	-0.954313	-0.272165	-0.123337
163	1043141216													4.107428	-4.889292	5.695648	0.125948	-0.757779	0.640240	-0.263855	0.596545	0.757968	-0.956304	-0.264395	-0.124810
164	1043157883													4.652057	-3.815990	3.989307	0.123844	-0.743690	0.656954	-0.259976	0.614608	0.744761	-0.957640	-0.263026	-0.117227
165	1043174550													2.111636	-2.375169	2.469218	0.122568	-0.732053	0.670131	-0.259238	0.628165	0.733624	-0.958005	-0.263642	-0.112783
166	1043191217													2.873862	-4.252859	-1.543228	0.115937	-0.723307	0.680724	-0.260501	0.639212	0.723565	-0.958487	-0.261217	-0.114314
167	1043207884													-1.345652	-9.118177	-7.804682	0.101767	-0.694913	0.711856	-0.265847	0.670549	0.692596	-0.958629	-0.259728	-0.116501
168	1043224551													-0.447373	-8.182280	-8.250406	0.072127	-0.665266	0.743114	-0.269478	0.704347	0.656717	-0.960302	-0.247620	-0.128472
169	1043241218													-1.640547	-6.257959	-5.522999	0.034424	-0.622963	0.781493	-0.269697	0.747156	0.607471	-0.962330	-0.231678	-0.142291
170	1043257885													-2.853931	-4.941327	-1.554128	-0.006485	-0.581306	0.813659	-0.264034	0.785796	0.559295	-0.964492	-0.211207	-0.158581
171	1043274552													-3.671638	-2.762784	2.639632	-0.041765	-0.540687	0.840187	-0.253114	0.819214	0.514608	-0.966534	-0.191171	-0.171070
172	1043291219													-5.185738	-0.614708	3.651705	-0.070112	-0.508054	0.858467	-0.240030	0.843892	0.479825	-0.968230	-0.172416	-0.181115
173	1043307886													-4.332195	0.409220	2.118075	-0.092034	-0.491387	0.866065	-0.226660	0.857262	0.462306	-0.969616	-0.153755	-0.190275
174	1043324553													-3.012166	0.575895	0.232160	-0.109426	-0.489524	0.865097	-0.213612	0.861569	0.460509	-0.970771	-0.134403	-0.198846
175	1043341220													-1.002822	-0.612041	-0.604290	-0.123687	-0.497894	0.858372	-0.201050	0.859648	0.469664	-0.971741	-0.114484	-0.206429
176	1043357887													-0.391433	-2.049380	-0.423347	-0.137190	-0.503078	0.853283	-0.186944	0.859097	0.476449	-0.972744	-0.094152	-0.211906
177	1043374554													-1.038451	-2.324804	-0.140885	-0.150806	-0.502068	0.851578	-0.170729	0.861713	0.477809	-0.973709	-0.073332	-0.215669
178	1043391221													-0.923924	-1.976873	-0.272007	-0.164467	-0.496593	0.852259	-0.152904	0.866416	0.475335	-0.974459	-0.052137	-0.218428
179	1043407888													-1.104180	-0.966381	-0.513863	-0.178673	-0.488447	0.854105	-0.134154	0.872061	0.470651	-0.974720	-0.030489	-0.221341
180	1043424555													-0.576216	-0.611418	-0.385860	-0.193125	-0.481786	0.854743	-0.116012	0.876244	0.467694	-0.974292	-0.008837	-0.225118
181	1043441222													0.081904	-0.268293	-0.033676	-0.207150	-0.472338	0.856730	-0.097561	0.881333	0.462313	-0.973432	0.012185	-0.228650
182	1043457889													0.106933	-0.117949	0.249479	-0.220481	-0.459997	0.860111	-0.078903	0.887332	0.454330	-0.972195	0.032305	-0.231935
183	1043474556													0.264306	-0.095260	0.256523	-0.233344	-0.443354	0.865441	-0.059591	0.894857	0.442357	-0.970567	0.051649	-0.235230
184	1043491223													0.305242	-0.190120	0.056260	-0.246186	-0.420265	0.873367	-0.038787	0.904651	0.424385	-0.968446	0.070602	-0.239013
185	1043507890													-0.255998	0.073559	-0.159679	-0.257926	-0.391405	0.883333	-0.016106	0.915882	0.401125	-0.966031	0.089234	-0.242533
186	1043524557													-0.198498	0.630092	-0.527466	-0.267170	-0.359644	0.894023	0.008560	0.926825	0.375397	-0.963611	0.107948	-0.244541
187	1043541224													0.650769	1.320250	-0.642456	-0.273520	-0.329222	0.903770	0.033831	0.935726	0.351101	-0.961271	0.126609	-0.244802
188	1043557891													1.302201	1.658800	-0.225964	-0.276864	-0.299292	0.913110	0.059284	0.943126	0.327106	-0.959079	0.144696	-0.243375
189	1043574558													-0.180614	1.612054	0.119593	-0.279228	-0.271023	0.921183	0.083240	0.948897	0.304409	-0.956610	0.161679	-0.242399
190	1043591225													-1.051508	2.058017	0.205437	-0.283943	-0.251202	0.925351	0.103096	0.951479	0.289930	-0.953283	0.177723	-0.244268
191	1043607892													0.192449	2.367027	-0.129816	-0.289032	-0.238163	0.927221	0.119903	0.951926	0.281885	-0.949781	0.192651	-0.246581
192	1043624559													0.795663	2.404648	-0.299041	-0.293338	-0.223911	0.929418	0.136401	0.952436	0.272507	-0.946228	0.206710	-0.248844
193	1043641226													0.694261	2.387790	-0.315529	-0.296664	-0.206328	0.932426	0.153525	0.953377	0.259810	-0.942561	0.220227	-0.251156
194	1043657893													0.503570	2.870826	-0.157060	-0.298556	-0.186992	0.935895	0.170561	0.954378	0.245095	-0.939028	0.232802	-0.253041
195	1043674560													-0.128442	3.463921	0.123009	-0.298946	-0.168154	0.939338	0.185827	0.955250	0.230143	-0.936002	0.243354	-0.254321
196	1043691227													-0.573695	3.830684	0.304059	-0.299314	-0.153078	0.941795	0.197506	0.955729	0.218112	-0.933490	0.251294	-0.255829
197	1043707894													-0.503858	3.756107	0.475070	-0.299744	-0.142834	0.943267	0.205546	0.955839	0.210054	-0.931614	0.256847	-0.257148
198	1043724561													-0.280005	3.403471	0.693315	-0.298464	-0.135583	0.944741	0.211424	0.955874	0.203974	-0.930709	0.260620	-0.256629
199	1043741228													-0.469621	3.296235	1.005930	-0.294874	-0.128603	0.946843	0.216823	0.956049	0.197378	-0.930611	0.263499	-0.254030
200	1043757895													-0.385900	4.548160	2.656579	-0.291977	-0.121078	0.948730	0.221907	0.956310	0.190338	-0.930326	0.266105	-0.252353
201	1043774562													-0.593312	5.480619	3.622914	-0.285673	-0.114345	0.951481	0.226092	0.956788	0.182865	-0.931275	0.267362	-0.247476
202	1043791229													0.270563	5.986641	2.286375	-0.276796	-0.114372	0.954098	0.225470	0.957443	0.180184	-0.934102	0.264995	-0.239229
203	1043807896													0.988554	7.019820	2.123118	-0.265818	-0.115093	0.957128	0.220757	0.959198	0.176652	-0.938407	0.258250	-0.229565
204	1043824563													1.003393	7.738850	2.442105	-0.253774	-0.121129	0.959649	0.210106	0.961536	0.176928	-0.944169	0.246528	-0.218562
205	1043841230													1.637587	7.186987	1.747138	-0.241640	-0.146459	0.959250	0.189629	0.962357	0.194702	-0.951657	0.228950	-0.204771
206	1043857897													3.766552	6.628182	0.884219	-0.223800	-0.190539	0.955829	0.160577	0.960094	0.228987	-0.961316	0.204731	-0.184273
207	1043874564													3.701333	5.128099	-0.144927	-0.195388	-0.234600	0.952253	0.128371	0.956496	0.261985	-0.972288	0.173430	-0.156772
208	1043891231													1.533006	2.497681	0.035710	-0.163281	-0.267733	0.949557	0.096573	0.953514	0.285455	-0.981842	0.138311	-0.129835
209	1043907898													-0.841870	0.454076	2.044604	-0.136797	-0.291555	0.946722	0.065417	0.950961	0.302313	-0.988437	0.103287	-0.111016
210	1043924565													-1.849336	-1.846494	5.263358	-0.116438	-0.310681	0.943355	0.034453	0.947981	0.316457	-0.992600	0.069349	-0.099677
211	1043941232													-0.944262	-4.454359	6.258499	-0.097890	-0.326882	0.939982	0.006008	0.944307	0.329012	-0.995179	0.037854	-0.090474
212	1043957899													-0.179231	-5.940885	3.888401	-0.078504	-0.337677	0.937983	-0.019712	0.941228	0.337195	-0.996719	0.007982	-0.080547
213	1043974566													-0.794434	-4.420752	1.400738	-0.055965	-0.341037	0.938383	-0.046805	0.939718	0.338731	-0.997335	-0.024964	-0.068553
214	1043991233													-2.402776	-1.113175	0.209010	-0.032548	-0.346568	0.937460	-0.076341	0.936079	0.343407	-0.996550	-0.060390	-0.056925
215	1044007900													-3.084326	0.386126	0.276439	-0.012078	-0.362106	0.932058	-0.106609	0.927280	0.358868	-0.994228	-0.095032	-0.049803
216	1044024567													-2.864284	-0.177993	0.685473	0.006347	-0.383503	0.923518	-0.137811	0.914389	0.380659	-0.990438	-0.129687	-0.047047
217	1044041234													-2.510108	-1.808406	0.373652	0.025828	-0.408116	0.912564	-0.169406	0.897879	0.406343	-0.985208	-0.165089	-0.045947
218	1044057901													-2.038104	-4.376426	-0.182663	0.046674	-0.434201	0.899606	-0.198543	0.878587	0.434357	-0.978980	-0.198883	-0.045200
219	1044074568													-2.504751	-4.480528	-1.697203	0.068263	-0.457611	0.886529	-0.222339	0.859276	0.460663	-0.972577	-0.228556	-0.043088
220	1044091235													-2.084063	-4.333508	-3.023052	0.087043	-0.482395	0.871618	-0.241944	0.838507	0.488231	-0.966378	-0.253379	-0.043726
221	1044107902													-1.661017	-4.045586	-4.075842	0.104754	-0.506970	0.855575	-0.257309	0.817197	0.515734	-0.960635	-0.274172	-0.044844
222	1044124569													-1.353823	-3.639368	-4.538287	0.121293	-0.533200	0.837249	-0.268625	0.794370	0.544809	-0.955578	-0.290987	-0.046879
223	1044141236													-1.379700	-3.274733	-4.580378	0.135912	-0.558677	0.818173	-0.276184	0.771733	0.572844	-0.951446	-0.303823	-0.049410
224	1044157903													-1.081009	-3.309565	-4.683849	0.148176	-0.583800	0.798262	-0.280166	0.749325	0.600016	-0.948446	-0.312554	-0.052529
225	1044174570													-0.461479	-3.578124	-4.905071	0.156936	-0.608202	0.778114	-0.281261	0.727727	0.625545	-0.946712	-0.317024	-0.056857
226	1044191237													0.418012	-4.201464	-5.129102	0.161949	-0.632389	0.757533	-0.280163	0.706612	0.649775	-0.946193	-0.317463	-0.062737
227	1044207904													0.827051	-4.110917	-5.143676	0.161876	-0.654992	0.738094	-0.277295	0.687629	0.671024	-0.947050	-0.313292	-0.070315
228	1044224571													1.249803	-4.073877	-4.959519	0.157439	-0.676907	0.719034	-0.273391	0.669780	0.690400	-0.948931	-0.305274	-0.079611
229	1044241238													1.337308	-3.475455	-4.480380	0.149996	-0.696128	0.702073	-0.268910	0.654611	0.706520	-0.951414	-0.294770	-0.089007
230	1044257905													0.774172	-2.396307	-3.421206	0.139723	-0.711167	0.688999	-0.264653	0.643689	0.718069	-0.954168	-0.282676	-0.098275
231	1044274572													0.306693	-1.392923	-1.318884	0.124733	-0.723388	0.679081	-0.260201	0.636623	0.725953	-0.957464	-0.267248	-0.108818
232	1044291239													0.418483	0.625379	2.177332	0.111199	-0.735691	0.668126	-0.255596	0.628509	0.734607	-0.960367	-0.252458	-0.118150
233	1044307906													2.095904	3.971878	6.148237	0.102863	-0.748038	0.655636	-0.252323	0.617950	0.744628	-0.962160	-0.242026	-0.125183
234	1044324573													4.000757	8.700560	8.866167	0.098890	-0.753301	0.650198	-0.254553	0.612511	0.748353	-0.961989	-0.239515	-0.131184
235	1044341240													3.068776	9.511657	8.326666	0.098988	-0.755614	0.647494	-0.263410	0.607582	0.749306	-0.959592	-0.244728	-0.138893
236	1044357907													1.490926	5.414281	4.592577	0.105760	-0.764558	0.635819	-0.271959	0.592787	0.758051	-0.956479	-0.253088	-0.145235
237	1044374574													1.184658	1.885182	0.798603	0.113023	-0.773951	0.623078	-0.277086	0.577667	0.767805	-0.954174	-0.259426	-0.149162
238	1044391241													0.749930	0.069128	-1.808320	0.113337	-0.779157	0.616497	-0.279765	0.570362	0.772282	-0.953355	-0.260003	-0.153338
239	1044407908													0.988453	-3.111615	-1.804989	0.102702	-0.782488	0.614138	-0.279950	0.569709	0.772696	-0.954505	-0.251286	-0.160547
240	1044424575													3.478361	-8.694143	4.151607	0.081241	-0.776724	0.624580	-0.274392	0.585006	0.763202	-0.958180	-0.233383	-0.165601
241	1044441242													6.407897	-5.402261	4.563871	0.075239	-0.757759	0.648183	-0.267867	0.610774	0.745119	-0.960514	-0.229689	-0.157024
242	1044457909													3.642949	1.904759	3.132239	0.082809	-0.741928	0.665347	-0.261895	0.627971	0.732846	-0.961537	-0.234937	-0.142305
243	1044474576													-1.476986	2.524840	2.495480	0.077975	-0.732123	0.676695	-0.263168	0.639571	0.722283	-0.961594	-0.234404	-0.142800
244	1044491243													-2.268452	-5.159383	-1.805979	0.066630	-0.712447	0.698555	-0.269809	0.661164	0.700047	-0.960606	-0.235121	-0.148172
245	1044507910													-2.253146	-8.657101	-6.432809	0.046536	-0.692344	0.720066	-0.274324	0.684274	0.675659	-0.960511	-0.228974	-0.158083
246	1044524577													0.878194	-7.658915	-5.790705	0.018596	-0.674080	0.738425	-0.274554	0.706718	0.652050	-0.961392	-0.214863	-0.171929
247	1044541244													-0.183475	-7.024153	-3.824425	-0.014830	-0.639857	0.768351	-0.270537	0.742342	0.612975	-0.962595	-0.198777	-0.184114
248	1044557911													-0.963051	-4.072765	-0.896044	-0.048056	-0.599182	0.799169	-0.260662	0.779893	0.569054	-0.964233	-0.180966	-0.193662
249	1044574578													-2.282815	-0.637364	1.125616	-0.072913	-0.557472	0.826988	-0.246863	0.813480	0.526601	-0.966303	-0.165757	-0.196932
250	1044591245													-4.087368	1.141720	2.127077	-0.092289	-0.532239	0.841549	-0.233481	0.833160	0.501329	-0.967972	-0.150219	-0.201159
251	1044607912													-3.304292	1.570300	1.912189	-0.107408	-0.525925	0.843721	-0.221631	0.839942	0.495355	-0.969197	-0.133789	-0.206778
252	1044624579													-1.676286	0.714631	0.634176	-0.118744	-0.531071	0.838966	-0.211344	0.839100	0.501243	-0.970172	-0.117791	-0.211876
253	1044641246													-0.516957	-1.432019	-0.204000	-0.130021	-0.536496	0.833826	-0.201602	0.837703	0.507554	-0.970799	-0.102108	-0.217077
254	1044657913													-0.926976	-2.280052	-0.009192	-0.141097	-0.537079	0.831648	-0.190961	0.839041	0.509455	-0.971404	-0.086929	-0.220947
255	1044674580													-1.305757	-2.079979	-0.196703	-0.152267	-0.533295	0.832112	-0.178258	0.842941	0.507616	-0.972131	-0.071038	-0.223416
256	1044691247													-1.415890	-1.323539	-0.567808	-0.164200	-0.527211	0.833719	-0.163691	0.848035	0.504026	-0.972751	-0.053712	-0.225547
257	1044707914													-1.388328	-0.484820	-0.599881	-0.177426	-0.521060	0.834875	-0.148128	0.852809	0.500774	-0.972922	-0.034818	-0.228495
258	1044724581													-0.587960	-0.437225	-0.077956	-0.190739	-0.513817	0.836427	-0.132152	0.857755	0.496783	-0.972705	-0.015780	-0.231509
259	1044741248													0.101197	-0.678927	-0.014009	-0.203007	-0.503388	0.839874	-0.115651	0.864057	0.489928	-0.972324	0.002326	-0.233627
260	1044757915													0.667794	-0.368397	0.014576	-0.214242	-0.490284	0.844821	-0.098486	0.871338	0.480697	-0.971803	0.019782	-0.234963
261	1044774582													1.243345	-0.023977	-0.129930	-0.224286	-0.474121	0.851414	-0.080317	0.879693	0.468711	-0.971208	0.036742	-0.235383
262	1044791249													1.012618	0.325408	-0.126779	-0.232664	-0.454729	0.859703	-0.061331	0.889062	0.453659	-0.970621	0.052824	-0.234742
263	1044807916													0.276448	0.211043	-0.049523	-0.240858	-0.431844	0.869194	-0.041860	0.899348	0.435226	-0.969657	0.068443	-0.234692
264	1044824583													-0.063018	-0.500534	-0.101448	-0.249527	-0.405929	0.879180	-0.021883	0.910031	0.413963	-0.968121	0.084055	-0.235960
265	1044841250													-0.256974	-0.378758	-0.098705	-0.257718	-0.380924	0.887963	-0.001726	0.919187	0.393817	-0.966219	0.099961	-0.237548
266	1044857917													0.242658	-0.266690	-0.079638	-0.264209	-0.358601	0.895320	0.018984	0.926194	0.376569	-0.964279	0.116490	-0.237901
267	1044874584													0.197838	0.274271	-0.128676	-0.269056	-0.336797	0.902317	0.041007	0.932009	0.360108	-0.962251	0.133890	-0.236952
268	1044891251													-0.624251	1.106093	-0.121818	-0.273494	-0.315739	0.908576	0.063736	0.936565	0.344651	-0.959760	0.152169	-0.236021
269	1044907918													-0.651635	1.943759	-0.168971	-0.277705	-0.296015	0.913923	0.085897	0.939881	0.330523	-0.956819	0.170290	-0.235583
270	1044924585													-0.227968	3.133031	-0.276277	-0.281292	-0.277859	0.918515	0.106723	0.942167	0.317698	-0.953669	0.187392	-0.235370
271	1044941252													-0.016498	3.961276	-0.513049	-0.285006	-0.262548	0.921868	0.125401	0.943277	0.307415	-0.950287	0.203218	-0.235916
272	1044957919													-0.369763	4.159798	-0.362611	-0.288449	-0.251399	0.923902	0.140132	0.943442	0.300466	-0.947185	0.216137	-0.236906
273	1044974586													-0.875113	3.781271	-0.203446	-0.291761	-0.245561	0.924432	0.149931	0.942794	0.297758	-0.944667	0.225476	-0.238254
274	1044991253													-1.115873	2.883800	0.002495	-0.293765	-0.240961	0.925008	0.156868	0.942433	0.295319	-0.942918	0.231858	-0.239055
275	1045007920													-1.210684	2.226781	0.165387	-0.293921	-0.236101	0.926211	0.162319	0.942609	0.291791	-0.941946	0.236105	-0.238729
276	1045024587													-1.217229	2.617048	0.503411	-0.292827	-0.229871	0.928123	0.167488	0.943333	0.286481	-0.941382	0.239339	-0.237733
277	1045041254													-1.128768	3.910439	2.498850	-0.292364	-0.223247	0.929884	0.172079	0.944217	0.280791	-0.940698	0.242106	-0.237639
278	1045057921													-0.886438	4.473787	3.427716	-0.289148	-0.217949	0.932144	0.174717	0.945367	0.275237	-0.941205	0.242446	-0.235272
279	1045074588													0.109453	5.126354	2.494439	-0.283995	-0.220797	0.933057	0.171930	0.945626	0.276102	-0.943285	0.238832	-0.230591
280	1045091255													0.922531	5.676683	1.531980	-0.276309	-0.224963	0.934369	0.165207	0.946628	0.276769	-0.946763	0.230838	-0.224397
281	1045107922													1.104308	6.384549	2.173043	-0.265200	-0.230422	0.936256	0.154901	0.948230	0.277246	-0.951669	0.218552	-0.215778
282	1045124589													1.569546	6.167488	2.121915	-0.250656	-0.246678	0.936120	0.138553	0.947894	0.286880	-0.958110	0.201610	-0.203418
283	1045141256													2.911110	5.692112	1.416013	-0.231288	-0.276346	0.932812	0.115924	0.944151	0.308448	-0.965954	0.179475	-0.186335
284	1045157923													2.909372	4.804280	0.759261	-0.205274	-0.310176	0.928253	0.089614	0.938509	0.333421	-0.974593	0.151627	-0.164856
285	1045174590													1.712467	2.697854	0.244961	-0.176697	-0.342003	0.922937	0.061213	0.932057	0.357102	-0.982360	0.119594	-0.143756
286	1045191257													0.568113	0.269620	0.764982	-0.150467	-0.369683	0.916894	0.032285	0.925121	0.378298	-0.988088	0.086523	-0.127265
287	1045207924													0.075400	-1.976950	2.711954	-0.127560	-0.393656	0.910364	0.004083	0.917646	0.397377	-0.991822	0.054407	-0.115448
288	1045224591													0.535752	-4.382322	4.421378	-0.106677	-0.412669	0.904613	-0.021799	0.910556	0.412810	-0.994055	0.024318	-0.106131
289	1045241258													1.394263	-6.313651	4.456547	-0.087140	-0.423846	0.901533	-0.043427	0.905731	0.421622	-0.995249	-0.002411	-0.097331
290	1045257925													1.036494	-5.313043	2.474583	-0.066038	-0.426002	0.902309	-0.063924	0.904231	0.422231	-0.995767	-0.029796	-0.086945
291	1045274592													-0.277628	-3.292048	0.519011	-0.044265	-0.423932	0.904612	-0.086697	0.903713	0.419268	-0.995251	-0.059868	-0.076757
292	1045291259													-1.386789	-1.995432	-0.292900	-0.025545	-0.423862	0.905366	-0.111013	0.901263	0.418809	-0.993491	-0.089809	-0.070077
293	1045307926													-1.576818	-1.717010	-0.171280	-0.010329	-0.425587	0.904858	-0.135540	0.897151	0.420415	-0.990718	-0.118302	-0.066951
294	1045324593													-1.288063	-2.342435	0.057802	0.004142	-0.428532	0.903517	-0.160615	0.891509	0.423573	-0.987009	-0.146872	-0.065136
295	1045341260													-1.625339	-3.251952	-0.178283	0.018062	-0.433246	0.901095	-0.186014	0.884051	0.428780	-0.982381	-0.175361	-0.064622
296	1045357927													-1.500232	-3.842972	-1.117328	0.030069	-0.437983	0.898480	-0.209159	0.876230	0.434136	-0.977419	-0.200979	-0.065260
297	1045374594													-1.173743	-4.419382	-1.938589	0.039228	-0.441182	0.896560	-0.229755	0.869228	0.437785	-0.972458	-0.223163	-0.067265
298	1045391261													-1.027369	-4.143591	-2.799036	0.046905	-0.445118	0.894242	-0.247408	0.862157	0.442125	-0.967775	-0.241981	-0.069686
299	1045407928													-0.632439	-3.451199	-3.103925	0.053563	-0.452942	0.889930	-0.261460	0.853756	0.450267	-0.963727	-0.256798	-0.072696
300	1045424595													0.085541	-3.206290	-3.308317	0.061251	-0.464902	0.883241	-0.271518	0.843771	0.462956	-0.960482	-0.268172	-0.074548
301	1045441262													0.558575	-3.326123	-3.543919	0.070763	-0.480276	0.874258	-0.277789	0.832294	0.479707	-0.958032	-0.276805	-0.074519
302	1045457929													0.503910	-2.950918	-3.790067	0.079933	-0.495427	0.864964	-0.281189	0.821292	0.496399	-0.956318	-0.282897	-0.073661
303	1045474596													0.297617	-2.662610	-3.997015	0.086225	-0.507536	0.857305	-0.282179	0.812832	0.509588	-0.955479	-0.285853	-0.073130
304	1045491263													0.025690	-3.053453	-4.369898	0.088599	-0.515545	0.852270	-0.281761	0.807716	0.517885	-0.955385	-0.286021	-0.073698
305	1045507930													0.116826	-3.289506	-4.335227	0.084696	-0.519986	0.849965	-0.280404	0.806118	0.521103	-0.956138	-0.282469	-0.077531
306	1045524597													0.535492	-2.823345	-3.347109	0.074208	-0.520904	0.850384	-0.277367	0.808307	0.519334	-0.957894	-0.274407	-0.084498
307	1045541264													0.666933	-0.993060	-0.981455	0.060632	-0.520426	0.851752	-0.272752	0.812207	0.515680	-0.960172	-0.263584	-0.092702
308	1045557931													0.706115	0.532692	1.422602	0.047254	-0.521804	0.851755	-0.267522	0.814946	0.514096	-0.962392	-0.252156	-0.101084
309	1045574598													1.883052	1.870294	3.290402	0.036836	-0.522523	0.851829	-0.264833	0.816826	0.512503	-0.963591	-0.244471	-0.108293
310	1045591265													3.288729	3.377717	3.279053	0.024861	-0.515870	0.856306	-0.266799	0.822079	0.502996	-0.963432	-0.240966	-0.117196
311	1045607932													3.933983	4.017020	2.396541	0.008388	-0.498551	0.866820	-0.272625	0.832872	0.481664	-0.962084	-0.240357	-0.128932
312	1045624599													3.393395	3.809745	1.290829	-0.004698	-0.480245	0.877122	-0.279564	0.842788	0.459948	-0.960115	-0.243051	-0.138219
313	1045641266													2.842872	1.886925	0.032163	-0.013426	-0.465229	0.885088	-0.285554	0.850089	0.442501	-0.958269	-0.246799	-0.144262
314	1045657933													4.771182	1.337481	-0.752081	-0.014242	-0.444004	0.895911	-0.292557	0.858643	0.420884	-0.956142	-0.256111	-0.142126
315	1045674600													0.068022	-3.830881	2.056356	-0.030324	-0.404518	0.914027	-0.292536	0.877999	0.378868	-0.955774	-0.255897	-0.144961
316	1045691267													-3.496161	-7.329728	11.340439	-0.052662	-0.382272	0.922548	-0.285173	0.891117	0.352969	-0.957028	-0.244498	-0.155942
317	1045707934													4.468043	-0.544731	6.877937	-0.044075	-0.371941	0.927210	-0.283934	0.894502	0.345323	-0.957830	-0.248046	-0.145032
318	1045724601													-2.853239	-1.040198	-0.232885	-0.051187	-0.341452	0.938504	-0.290655	0.904150	0.313100	-0.955458	-0.256754	-0.145525
319	1045741268													-3.785629	-6.217809	-4.154615	-0.059268	-0.316403	0.946772	-0.297206	0.911020	0.285850	-0.952972	-0.264445	-0.148031
320	1045757935													-0.058169	-8.582666	-5.771259	-0.063038	-0.310376	0.948522	-0.299762	0.912416	0.278639	-0.951929	-0.266766	-0.150556
321	1045774602													-1.534218	-7.888685	-4.609109	-0.078524	-0.280292	0.956698	-0.291072	0.924291	0.246907	-0.953473	-0.259080	-0.154164
322	1045791269													-3.310346	-5.954487	-1.708283	-0.105695	-0.230669	0.967275	-0.273321	0.941997	0.194775	-0.956098	-0.243790	-0.162611
323	1045807936													-3.420494	-2.332598	1.571413	-0.128315	-0.180591	0.975152	-0.253519	0.956583	0.143793	-0.958782	-0.228768	-0.168528
324	1045824603													-3.205650	1.465809	2.455773	-0.142740	-0.144060	0.979220	-0.236970	0.965550	0.107506	-0.960974	-0.216701	-0.171961
325	1045841270													-2.604986	2.667637	1.789554	-0.154527	-0.122165	0.980407	-0.225895	0.970409	0.085315	-0.961818	-0.208285	-0.177551
326	1045857937													-2.227586	1.987698	0.792600	-0.164123	-0.112455	0.980009	-0.219531	0.972730	0.074854	-0.961702	-0.202857	-0.184335
327	1045874604													-1.676274	0.610045	0.618240	-0.170986	-0.112393	0.978842	-0.216479	0.973482	0.073962	-0.961198	-0.199252	-0.190782
328	1045891271													-1.204619	-1.197614	0.528506	-0.174364	-0.113034	0.978172	-0.214391	0.973916	0.074326	-0.961059	-0.196751	-0.194049
329	1045907938													-1.428031	-1.572890	0.001567	-0.175980	-0.109872	0.978243	-0.210825	0.974900	0.071570	-0.961553	-0.193644	-0.194727
330	1045924605													-1.673333	-1.413091	-0.314643	-0.178445	-0.102523	0.978594	-0.206216	0.976366	0.064686	-0.962098	-0.190259	-0.195370
331	1045941272													-1.299713	-1.842619	-0.411846	-0.181376	-0.092059	0.979095	-0.201572	0.977950	0.054610	-0.962534	-0.187453	-0.195934
332	1045957939													-0.706808	-2.223776	-0.005261	-0.184042	-0.078340	0.979791	-0.196888	0.979554	0.041338	-0.962997	-0.185301	-0.195704
333	1045974606													-0.298991	-2.238051	0.181477	-0.186682	-0.059547	0.980614	-0.191379	0.981243	0.023151	-0.963599	-0.183347	-0.194576
334	1045991273													-0.324291	-2.047011	0.235472	-0.191095	-0.033596	0.980997	-0.184659	0.982800	-0.002313	-0.964046	-0.181592	-0.194012
335	1046007940													-0.522213	-1.579588	0.314100	-0.197109	-0.002995	0.980377	-0.177030	0.983666	-0.032588	-0.964266	-0.179980	-0.194420
336	1046024607													-0.552096	-1.202668	0.264266	-0.203150	0.029367	0.978707	-0.169330	0.983436	-0.064657	-0.964395	-0.178860	-0.194813
337	1046041274													-0.581346	-0.563517	0.365167	-0.208713	0.062108	0.976003	-0.162113	0.981978	-0.097155	-0.964447	-0.178501	-0.194883
338	1046057941													-0.406866	0.149693	0.690164	-0.213725	0.093175	0.972440	-0.155527	0.979499	-0.128033	-0.964434	-0.178604	-0.194852
339	1046074608													-0.336128	0.958356	0.869878	-0.217608	0.120141	0.968614	-0.150071	0.976476	-0.154831	-0.964430	-0.179053	-0.194459
340	1046091275													-0.350592	1.520671	0.774195	-0.219567	0.141691	0.965253	-0.146318	0.973424	-0.176174	-0.964563	-0.179915	-0.192999
341	1046107942													-0.354266	1.506741	0.563640	-0.220171	0.159087	0.962401	-0.144244	0.970455	-0.193418	-0.964737	-0.181406	-0.190719
342	1046124609													-0.620533	1.010897	0.306871	-0.219702	0.173553	0.960005	-0.143428	0.967609	-0.207752	-0.964966	-0.183335	-0.187694
343	1046141276													-0.172410	0.167070	0.141984	-0.217964	0.186239	0.958022	-0.142954	0.964944	-0.220108	-0.965430	-0.184929	-0.183699
344	1046157943													0.821019	-0.290480	0.041931	-0.213153	0.199225	0.956491	-0.142482	0.962185	-0.232163	-0.966574	-0.185769	-0.176707
345	1046174610													1.854674	-0.045535	0.083470	-0.205995	0.213827	0.954905	-0.142666	0.958845	-0.245485	-0.968097	-0.186801	-0.167011
346	1046191277													2.585105	0.705372	0.243701	-0.196860	0.229659	0.953154	-0.144772	0.954712	-0.259935	-0.969684	-0.189161	-0.154697
347	1046207944													2.178894	1.542922	0.502078	-0.187273	0.248815	0.950274	-0.149312	0.948938	-0.277891	-0.970894	-0.193929	-0.140560
348	1046224611													0.824195	1.901295	0.528129	-0.178157	0.268805	0.946575	-0.157193	0.941836	-0.297045	-0.971365	-0.201716	-0.125540
349	1046241278													-0.686981	0.720966	0.401407	-0.168720	0.283427	0.944035	-0.168146	0.935450	-0.310901	-0.971216	-0.211191	-0.110172
350	1046257945													-1.627306	-1.665989	0.359650	-0.158759	0.296000	0.941902	-0.179950	0.929347	-0.322385	-0.970780	-0.220677	-0.094277
351	1046274612													-2.333685	-3.778370	0.864402	-0.147562	0.311087	0.938856	-0.190257	0.922591	-0.335601	-0.970581	-0.228146	-0.076953
352	1046291279													-2.120773	-4.130947	0.134551	-0.137702	0.329243	0.934150	-0.197070	0.915171	-0.351604	-0.970671	-0.232510	-0.061137
353	1046307946													-2.522997	-3.533591	-0.436687	-0.129405	0.351790	0.927091	-0.200678	0.906314	-0.371917	-0.971073	-0.234175	-0.046684
354	1046324613													-2.165398	-2.586976	-0.410263	-0.122134	0.379401	0.917136	-0.202694	0.895044	-0.397254	-0.971596	-0.234416	-0.032414
355	1046341280													-1.701295	-1.366639	-0.065206	-0.113889	0.409581	0.905137	-0.204486	0.881894	-0.424792	-0.972222	-0.233467	-0.016684
356	1046357947													-1.200960	-0.712959	0.297382	-0.104563	0.437070	0.893329	-0.206600	0.869110	-0.449403	-0.972822	-0.231553	-0.000578
357	1046374614													-0.860287	-0.894327	0.830217	-0.095051	0.461423	0.882074	-0.208413	0.857225	-0.470882	-0.973411	-0.228593	0.014686
358	1046391281													-0.676779	-1.235578	1.234443	-0.084384	0.485339	0.870244	-0.210242	0.845025	-0.491661	-0.974001	-0.224450	0.030733
359	1046407948													-0.651892	-1.554454	1.199605	-0.073128	0.510728	0.856627	-0.213002	0.831110	-0.513698	-0.974311	-0.220029	0.048009
360	1046424615													-0.937052	-1.934458	0.767138	-0.062314	0.537792	0.840771	-0.216924	0.814972	-0.537368	-0.974198	-0.215869	0.065876
361	1046441282													-1.270652	-2.153993	0.240264	-0.053175	0.567653	0.821549	-0.221525	0.795508	-0.563998	-0.973704	-0.211984	0.083448
362	1046457949													-1.626755	-2.081011	-0.212831	-0.046360	0.600784	0.798066	-0.226021	0.771897	-0.594214	-0.973019	-0.207927	0.100004
363	1046474616													-1.898953	-1.905457	-0.450897	-0.041276	0.635284	0.771175	-0.229960	0.745071	-0.626089	-0.972324	-0.203182	0.115336
364	1046491283													-2.203417	-1.837275	-0.565461	-0.036362	0.668970	0.742399	-0.232655	0.716811	-0.657308	-0.971879	-0.196624	0.129574
365	1046507950													-2.384835	-1.663158	-0.874739	-0.031032	0.701941	0.711558	-0.232633	0.687279	-0.688135	-0.972069	-0.186886	0.141967
366	1046524617													-2.419451	-1.574014	-1.269304	-0.025396	0.734406	0.678235	-0.229163	0.656110	-0.719030	-0.973057	-0.173687	0.151636
367	1046541284													-2.417983	-1.103033	-1.386299	-0.019910	0.767911	0.640247	-0.222383	0.620931	-0.751658	-0.974756	-0.157346	0.158408
368	1046557951													-2.112930	-0.492608	-1.143304	-0.015429	0.801763	0.597442	-0.212270	0.581267	-0.785538	-0.977089	-0.138940	0.161222
369	1046574618													-1.290283	0.358590	-0.534897	-0.011083	0.834209	0.551337	-0.199958	0.538385	-0.818632	-0.979742	-0.119317	0.160840
370	1046591285													-0.643612	0.745560	0.168280	-0.006158	0.864158	0.503184	-0.187007	0.493321	-0.849508	-0.982339	-0.099330	0.158565
371	1046607952													0.220475	1.080747	0.861874	-0.000194	0.891173	0.453664	-0.174671	0.446659	-0.877488	-0.984627	-0.079412	0.155575
372	1046624619													0.811533	1.310492	1.140543	0.006661	0.914314	0.404952	-0.163707	0.400494	-0.901557	-0.986486	-0.060288	0.152348
373	1046641286													0.952549	1.620439	1.019784	0.014302	0.933202	0.359068	-0.153802	0.356884	-0.921400	-0.987998	-0.042048	0.148632
374	1046657953													0.927621	2.067012	0.859977	0.022916	0.947336	0.319420	-0.144075	0.319298	-0.936638	-0.989301	-0.024557	0.143804
375	1046674620													0.684501	1.892955	1.148385	0.032148	0.957633	0.286193	-0.134059	0.287885	-0.948235	-0.990452	-0.007883	0.137635
376	1046691287													0.599414	0.830454	0.485268	0.041220	0.965952	0.255416	-0.124720	0.258608	-0.957897	-0.991335	0.007629	0.131133
377	1046707954													0.260833	-0.467824	-0.411042	0.052450	0.973040	0.224593	-0.114332	0.229275	-0.966624	-0.992057	0.025021	0.123275
378	1046724621													-0.260141	-0.339972	-0.696507	0.068925	0.977306	0.200303	-0.101000	0.206585	-0.973202	-0.992496	0.046847	0.112947
379	1046741288													-1.373227	0.073975	-0.881440	0.085032	0.978471	0.188053	-0.084262	0.195122	-0.977153	-0.992809	0.067244	0.099039
380	1046757955													-1.874625	0.414461	-0.500602	0.095282	0.978984	0.180312	-0.067761	0.187094	-0.980002	-0.993141	0.081159	0.084163
381	1046774622													-1.666570	0.825353	-0.014144	0.102767	0.981014	0.164472	-0.054400	0.170643	-0.983830	-0.993217	0.092158	0.070904
382	1046791289													-1.237306	1.315842	-0.144959	0.109441	0.984302	0.138465	-0.043682	0.143930	-0.988623	-0.993033	0.102148	0.058748
383	1046807956													-0.721835	1.494180	-0.537960	0.114202	0.987628	0.107464	-0.034832	0.112085	-0.993088	-0.992847	0.109669	0.047201
384	1046824623													0.172509	1.499809	-0.583393	0.116791	0.990259	0.075813	-0.027041	0.079478	-0.996470	-0.992788	0.114328	0.036060
385	1046841290													0.975778	1.341433	-0.367600	0.118719	0.991831	0.046665	-0.019585	0.049327	-0.998591	-0.992735	0.117637	0.025281
386	1046857957													1.409225	1.054968	-0.532165	0.120878	0.992446	0.020974	-0.012439	0.022641	-0.999666	-0.992589	0.120576	0.015082
387	1046874624													1.719500	0.812967	-0.664120	0.122297	0.992491	-0.002435	-0.005763	-0.001743	-0.999982	-0.992477	0.122308	0.005507
388	1046891291													1.793696	0.647712	-0.792732	0.122669	0.992177	-0.023181	0.000078	-0.023367	-0.999727	-0.992448	0.122633	-0.002944
389	1046907958													1.555432	-0.391336	-0.559799	0.121542	0.991671	-0.042613	0.004722	-0.043509	-0.999042	-0.992575	0.121224	-0.009971
390	1046924625													0.918845	-1.098477	0.210516	0.119081	0.990846	-0.063597	0.007642	-0.064965	-0.997858	-0.992855	0.118340	-0.015308
391	1046941292													0.421916	-0.808749	0.078553	0.117502	0.989429	-0.084988	0.010202	-0.086779	-0.996175	-0.993020	0.116185	-0.020290
392	1046957959													0.271596	-0.311105	-0.523806	0.113720	0.987640	-0.107863	0.012384	-0.109968	-0.993858	-0.993436	0.111685	-0.024736
393	1046974626													0.632930	0.055463	-0.654897	0.107651	0.984873	-0.135784	0.011834	-0.137837	-0.990384	-0.994118	0.105009	-0.026493
394	1046991293													1.413566	0.291313	-0.955336	0.100301	0.980306	-0.170117	0.008164	-0.171784	-0.985101	-0.994924	0.097418	-0.025234
395	1047007960													1.831681	0.499184	-1.397423	0.090019	0.974177	-0.207066	0.002529	-0.208133	-0.978097	-0.995937	0.087524	-0.021199
396	1047024627													1.925617	0.545017	-1.812804	0.075705	0.967266	-0.242208	-0.003433	-0.242651	-0.970108	-0.997124	0.074273	-0.015049
397	1047041294													1.796709	0.308149	-1.677689	0.056803	0.959552	-0.275743	-0.009365	-0.275664	-0.961208	-0.998341	0.057182	-0.006672
398	1047057961													1.747803	-0.882870	-0.043840	0.034591	0.950618	-0.308431	-0.014901	-0.308091	-0.951240	-0.999290	0.037501	0.003508
399	1047074628													2.272740	-2.629645	5.205917	0.011924	0.940818	-0.338703	-0.019354	-0.338446	-0.940787	-0.999742	0.017773	0.014173
400	1047091295													3.706868	-6.025277	5.438929	0.000367	0.933446	-0.358718	-0.024265	-0.358604	-0.933174	-0.999705	0.009047	0.022519
401	1047107962													4.939267	-8.162517	1.050594	-0.009930	0.927737	-0.373102	-0.031117	-0.373226	-0.927218	-0.999466	0.002402	0.032574
402	1047124629													6.008289	-6.173748	-0.236662	-0.024785	0.924954	-0.379269	-0.040076	-0.380000	-0.924118	-0.998889	-0.007704	0.046487
403	1047141296													2.332887	-0.400962	1.400454	-0.033139	0.927653	-0.371970	-0.051190	-0.373262	-0.926313	-0.998139	-0.011655	0.059856
404	1047157963													-3.506686	3.479035	1.530651	-0.036608	0.935426	-0.351621	-0.060560	-0.353287	-0.933553	-0.997493	-0.012881	0.069582
405	1047174630													-6.804216	3.897629	0.058005	-0.045243	0.940314	-0.337288	-0.064230	-0.339673	-0.938348	-0.996909	-0.020790	0.075764
406	1047191297													-6.235230	3.805174	-1.244857	-0.056311	0.935145	-0.349760	-0.063653	-0.352966	-0.933468	-0.996382	-0.030301	0.079401
407	1047207964													-3.215875	3.616443	-2.042555	-0.069412	0.918413	-0.389487	-0.059402	-0.393541	-0.917386	-0.995818	-0.040541	0.081872
408	1047224631													0.817624	3.696159	-1.385607	-0.083172	0.892354	-0.443606	-0.052652	-0.448462	-0.892250	-0.995143	-0.050854	0.084284
409	1047241298													3.099014	2.037234	-0.203414	-0.097079	0.866001	-0.490529	-0.045649	-0.496212	-0.867000	-0.994229	-0.061776	0.087703
410	1047257965													4.253235	0.743751	0.646110	-0.110669	0.844002	-0.524798	-0.040189	-0.531410	-0.846161	-0.993044	-0.072553	0.092730
411	1047274632													4.024584	-0.596811	0.916668	-0.123806	0.830918	-0.542446	-0.037400	-0.550170	-0.834214	-0.991601	-0.082993	0.099191
412	1047291299													3.186367	-0.442507	0.805035	-0.135497	0.824496	-0.549405	-0.037329	-0.558374	-0.828749	-0.990074	-0.091784	0.106436
413	1047307966													1.819576	1.145611	0.348957	-0.145161	0.820048	-0.553579	-0.039235	-0.563836	-0.824954	-0.988630	-0.098032	0.114022
414	1047324633													0.768073	1.874504	-0.278772	-0.154355	0.814181	-0.559718	-0.041027	-0.571300	-0.819715	-0.987163	-0.103564	0.121587
415	1047341300													0.728311	1.398063	-0.242992	-0.163927	0.807067	-0.567249	-0.041499	-0.580161	-0.813444	-0.985599	-0.109805	0.128597
416	1047357967													0.953147	0.892620	-0.020956	-0.173318	0.800075	-0.574318	-0.040870	-0.588484	-0.807475	-0.984018	-0.116477	0.134694
417	1047374634													1.241001	0.594664	0.036306	-0.182044	0.793176	-0.581146	-0.039398	-0.596431	-0.801697	-0.982501	-0.123048	0.139826
418	1047391301													0.968445	0.305714	-0.076234	-0.189750	0.785904	-0.588514	-0.037156	-0.604723	-0.795569	-0.981129	-0.129092	0.143947
419	1047407968													0.245788	0.010605	-0.065160	-0.196889	0.777071	-0.597826	-0.034375	-0.614858	-0.787889	-0.979823	-0.134576	0.147771
420	1047424635													-0.390746	-0.032960	0.111436	-0.204535	0.764251	-0.611625	-0.030574	-0.629518	-0.776384	-0.978382	-0.140097	0.152125
421	1047441302													-0.269078	-0.202081	0.329056	-0.212198	0.747346	-0.629640	-0.025527	-0.648332	-0.760929	-0.976893	-0.145395	0.156653
422	1047457969													0.040347	-0.742886	0.326787	-0.218948	0.728110	-0.649552	-0.019449	-0.668829	-0.743162	-0.975543	-0.150080	0.160600
423	1047474636													0.416795	-1.274796	0.276053	-0.224487	0.708379	-0.669182	-0.013208	-0.688857	-0.724777	-0.974388	-0.153865	0.163996
424	1047491303													0.653327	-1.446943	0.212184	-0.229279	0.689143	-0.687396	-0.007761	-0.707481	-0.706690	-0.973330	-0.156694	0.167559
425	1047507970													0.779419	-1.405965	0.175047	-0.233857	0.671380	-0.703250	-0.003273	-0.723846	-0.689954	-0.972265	-0.159049	0.171474
426	1047524637													0.970405	-1.274334	0.203066	-0.238937	0.655658	-0.716255	0.000631	-0.737516	-0.675330	-0.971035	-0.161813	0.175806
427	1047541304													1.039620	-1.298339	0.185204	-0.244131	0.642675	-0.726202	0.004226	-0.748148	-0.663518	-0.969733	-0.165054	0.179931
428	1047557971													1.083316	-1.260010	0.008179	-0.249097	0.632821	-0.733136	0.007468	-0.755720	-0.654853	-0.968450	-0.168596	0.183522
429	1047574638													1.058634	-1.168685	-0.041159	-0.254014	0.625725	-0.737527	0.010461	-0.760716	-0.649001	-0.967144	-0.172571	0.186687
430	1047591305													0.935313	-0.646732	-0.099118	-0.258889	0.619805	-0.740823	0.013692	-0.764539	-0.644432	-0.965810	-0.176980	0.189445
431	1047607972													0.779037	-0.247534	0.066373	-0.263955	0.614102	-0.743778	0.017367	-0.767975	-0.640244	-0.964379	-0.181912	0.192046
432	1047624639													0.213667	0.068397	0.031807	-0.269575	0.607235	-0.747392	0.022041	-0.772031	-0.635203	-0.962727	-0.187708	0.194736
433	1047641306													-0.446995	0.428796	-0.022152	-0.276054	0.596718	-0.753473	0.028655	-0.778477	-0.627019	-0.960715	-0.194682	0.197803
434	1047657973													-0.813035	0.425369	-0.075409	-0.282466	0.582159	-0.762433	0.037664	-0.787456	-0.615219	-0.958538	-0.202494	0.200503
435	1047674640													-0.627253	-0.055909	-0.035570	-0.288039	0.563006	-0.774634	0.049516	-0.799078	-0.599185	-0.956338	-0.210945	0.202288
436	1047691307													-0.051137	-0.724395	-0.002233	-0.292268	0.540360	-0.789044	0.063669	-0.812245	-0.579832	-0.954215	-0.219704	0.202989
437	1047707974													0.479334	-1.407797	-0.129001	-0.294895	0.516230	-0.804079	0.078884	-0.825476	-0.558897	-0.952268	-0.228245	0.202707
438	1047724641													0.794432	-2.302956	-0.247772	-0.295948	0.492422	-0.818496	0.093578	-0.837813	-0.537878	-0.950609	-0.235777	0.201869
439	1047741308													0.998921	-3.107423	-0.339009	-0.295712	0.469531	-0.831923	0.106781	-0.849166	-0.517219	-0.949290	-0.241781	0.200971
440	1047757975													1.358620	-3.522393	-0.435068	-0.294919	0.448034	-0.843972	0.117955	-0.859431	-0.497459	-0.948214	-0.246261	0.200614
441	1047774642													1.681722	-3.329603	-0.431577	-0.294348	0.428204	-0.854401	0.126955	-0.868564	-0.479040	-0.947228	-0.249475	0.201297
442	1047791309													1.728755	-2.964933	-0.471073	-0.293782	0.411193	-0.862910	0.133882	-0.876146	-0.463081	-0.946450	-0.251573	0.202344
443	1047807976													1.656018	-2.230809	-0.443061	-0.293118	0.397276	-0.869629	0.139463	-0.882085	-0.449974	-0.945850	-0.253176	0.203150
444	1047824643													1.706150	-1.520915	-0.204200	-0.293396	0.386101	-0.874554	0.144518	-0.886388	-0.439809	-0.945004	-0.255427	0.204264
445	1047841310													1.337894	-1.023977	-0.150637	-0.294123	0.377866	-0.877900	0.150169	-0.888850	-0.432890	-0.943897	-0.259157	0.204687
446	1047857977													0.769047	-0.359189	-0.101846	-0.294681	0.369649	-0.881205	0.158019	-0.890608	-0.426436	-0.942440	-0.264910	0.204034
447	1047874644													1.138137	-0.685439	0.765502	-0.295555	0.358968	-0.885319	0.168742	-0.892532	-0.418226	-0.940305	-0.272999	0.203219
448	1047891311													0.734047	-1.755122	2.314370	-0.296686	0.350431	-0.888356	0.180246	-0.892971	-0.412449	-0.937811	-0.282491	0.201768
449	1047907978													-0.017969	-2.486997	2.445350	-0.296479	0.344841	-0.890609	0.190923	-0.892312	-0.409057	-0.935761	-0.291315	0.198714
450	1047924645													0.104310	-3.180332	2.401232	-0.294928	0.339991	-0.892986	0.199500	-0.892048	-0.405523	-0.934461	-0.297751	0.195262
451	1047941312													-0.092012	-4.233623	2.499501	-0.293364	0.336949	-0.894652	0.204898	-0.891920	-0.403107	-0.933785	-0.301570	0.192617
452	1047957979													-0.632292	-4.684110	2.631381	-0.289699	0.340219	-0.894609	0.205852	-0.890669	-0.405381	-0.934719	-0.301596	0.187991
453	1047974646													-0.860128	-4.650005	2.380714	-0.282615	0.345987	-0.894663	0.204331	-0.889565	-0.408562	-0.937218	-0.298273	0.180709
454	1047991313													-0.930674	-5.001488	1.840200	-0.271793	0.353606	-0.895037	0.200852	-0.888723	-0.412104	-0.941163	-0.291777	0.170526
455	1048007980													-1.013581	-5.365773	0.820745	-0.258639	0.363452	-0.894991	0.194598	-0.887917	-0.416816	-0.946170	-0.281968	0.158923
456	1048024647													-1.290112	-5.325153	0.244699	-0.243947	0.376651	-0.893658	0.183572	-0.886903	-0.423915	-0.952256	-0.267463	0.147215
457	1048041314													-1.418940	-4.829074	-0.088663	-0.225326	0.393137	-0.891443	0.166673	-0.885931	-0.432835	-0.959921	-0.246108	0.134098
458	1048057981													-1.779681	-4.038557	-0.864414	-0.201050	0.408491	-0.890345	0.145670	-0.886331	-0.439543	-0.968689	-0.218066	0.118692
459	1048074648													-0.945070	-2.321119	-0.590841	-0.175891	0.423566	-0.888625	0.121620	-0.886432	-0.446594	-0.976868	-0.186627	0.104402
460	1048091315													-0.350938	-0.432827	0.484844	-0.153694	0.439669	-0.884912	0.095162	-0.884804	-0.456143	-0.983525	-0.154316	0.094149
461	1048107982													-0.461926	1.351812	1.812789	-0.132981	0.454051	-0.880996	0.068137	-0.882599	-0.465162	-0.988774	-0.121886	0.086431
462	1048124649													-0.936017	2.799866	2.765697	-0.111922	0.466061	-0.877645	0.042202	-0.880168	-0.472782	-0.992820	-0.089953	0.078842
463	1048141316													-0.922220	3.318618	2.933187	-0.090770	0.475909	-0.874798	0.017894	-0.877503	-0.479238	-0.995711	-0.059154	0.071135
464	1048157983													-0.632093	2.955783	1.993181	-0.068895	0.482707	-0.873068	-0.005668	-0.875322	-0.483507	-0.997608	-0.028363	0.063042
465	1048174650													0.267371	1.664225	0.793323	-0.045609	0.487530	-0.871914	-0.029570	-0.873099	-0.486646	-0.998522	0.003587	0.054237
466	1048191317													0.999066	0.888323	0.388570	-0.024915	0.494218	-0.868981	-0.054489	-0.868630	-0.492456	-0.998203	0.035081	0.048571
467	1048207984													1.630781	0.511790	0.501331	-0.007632	0.502101	-0.864775	-0.079439	-0.862372	-0.500004	-0.996810	0.064881	0.046468
468	1048224651													1.883150	0.580105	0.810944	0.007133	0.510873	-0.859626	-0.105522	-0.854464	-0.508681	-0.994391	0.094338	0.047813
469	1048241318													1.864798	1.425761	0.600493	0.021927	0.520859	-0.853361	-0.131518	-0.844646	-0.518919	-0.991071	0.123611	0.049982
470	1048257985													1.619322	2.578422	-0.007243	0.035833	0.531063	-0.846575	-0.155303	-0.833868	-0.529665	-0.987217	0.150455	0.052595
471	1048274652													1.399011	3.068350	-0.432142	0.048525	0.542683	-0.838535	-0.176875	-0.821587	-0.541950	-0.983036	0.174613	0.056120
472	1048291319													0.653951	3.374083	-1.314573	0.061263	0.552983	-0.830937	-0.195870	-0.809653	-0.553260	-0.978714	0.196650	0.058711
473	1048307986													0.533088	2.870290	-1.950233	0.074070	0.564453	-0.822135	-0.212233	-0.796592	-0.566037	-0.974408	0.216411	0.060792
474	1048324653													0.510988	2.218153	-2.272817	0.086487	0.577126	-0.812062	-0.225892	-0.782527	-0.580194	-0.970306	0.233617	0.062690
475	1048341320													0.397384	2.099083	-2.820759	0.099287	0.591525	-0.800150	-0.236245	-0.767119	-0.596421	-0.966608	0.248248	0.063580
476	1048357987													0.267239	2.071957	-3.202829	0.111801	0.606959	-0.786830	-0.243789	-0.750844	-0.613840	-0.963363	0.260448	0.064025
477	1048374654													-0.088957	2.055273	-3.597582	0.122363	0.621737	-0.773609	-0.249221	-0.735243	-0.630322	-0.960685	0.269928	0.064984
478	1048391321													-0.175769	1.755200	-3.938035	0.129737	0.635023	-0.761521	-0.253041	-0.721378	-0.644658	-0.958717	0.276332	0.067097
479	1048407988													-0.151693	1.542937	-3.842681	0.133743	0.646547	-0.751059	-0.254584	-0.710018	-0.656552	-0.957758	0.279017	0.069641
480	1048424655													-0.150659	1.076592	-3.521909	0.134708	0.657373	-0.741427	-0.255534	-0.699892	-0.666974	-0.957369	0.279306	0.073700
481	1048441322													-0.139041	1.014045	-3.002584	0.130693	0.668478	-0.732159	-0.254392	-0.691157	-0.676452	-0.958230	0.274663	0.079726
482	1048457989													-0.125432	0.767196	-2.346151	0.125222	0.678551	-0.723801	-0.251807	-0.683918	-0.684726	-0.959642	0.268001	0.085223
483	1048474656													0.092645	0.393448	-1.610793	0.117940	0.688016	-0.716048	-0.248007	-0.677821	-0.692135	-0.961552	0.259215	0.090691
484	1048491323													-0.113490	-0.580191	-0.348030	0.110687	0.698223	-0.707271	-0.243100	-0.671006	-0.700467	-0.963665	0.249470	0.095467
485	1048507990													-1.302643	-2.061352	1.594353	0.105788	0.710084	-0.696124	-0.237798	-0.661676	-0.711082	-0.965537	0.240761	0.098859
486	1048524657													-2.674457	-3.926223	3.463071	0.104551	0.721403	-0.684578	-0.232666	-0.651505	-0.722085	-0.966921	0.234772	0.099730
487	1048541324													-3.217305	-5.662689	4.481447	0.104574	0.727858	-0.677708	-0.230198	-0.645222	-0.728489	-0.967509	0.232188	0.100078
488	1048557991													-2.084772	-6.371791	5.061022	0.105187	0.733921	-0.671041	-0.231313	-0.638219	-0.734282	-0.967176	0.232457	0.102633
489	1048574658													-1.499913	-4.506322	3.681588	0.110778	0.745957	-0.656716	-0.234547	-0.622495	-0.746651	-0.965772	0.236743	0.106003
490	1048591325													-1.459281	-2.102282	1.054217	0.118402	0.760954	-0.637910	-0.237412	-0.602102	-0.762305	-0.964166	0.241706	0.109369
491	1048607992													-1.226346	-0.687422	-1.118877	0.121090	0.771532	-0.624560	-0.239315	-0.587940	-0.772693	-0.963362	0.243032	0.113446
492	1048624659													-0.981109	0.903684	-1.988857	0.117306	0.776016	-0.619709	-0.240719	-0.583189	-0.775851	-0.963480	0.240187	0.118390
493	1048641326													-1.983065	3.274356	1.588643	0.103197	0.776463	-0.621656	-0.239404	-0.587230	-0.773206	-0.965420	0.228619	0.125288
494	1048657993													-3.529092	3.450454	4.469867	0.093062	0.767419	-0.634356	-0.236690	-0.601806	-0.762763	-0.967118	0.221130	0.125635
495	1048674660													-3.912937	1.213719	2.490925	0.092559	0.755405	-0.648688	-0.232432	-0.617094	-0.751778	-0.968198	0.220360	0.118463
496	1048691327													-1.770096	-1.773047	3.793280	0.090563	0.749237	-0.656081	-0.231014	-0.625015	-0.745647	-0.968726	0.219092	0.116481
497	1048707994													-0.434292	0.715683	1.995558	0.084890	0.745094	-0.661535	-0.234846	-0.630265	-0.740009	-0.968319	0.218178	0.121479
498	1048724661													0.695921	6.915718	-3.644449	0.073392	0.727042	-0.682659	-0.240132	-0.651484	-0.719656	-0.967962	0.216746	0.126772
499	1048741328													0.210283	7.839803	-5.757075	0.053978	0.710198	-0.701930	-0.242809	-0.672521	-0.699114	-0.968571	0.208171	0.136141
500	1048757995													-1.263734	5.803657	-4.801529	0.029120	0.691600	-0.721694	-0.240896	-0.695864	-0.676567	-0.970114	0.193555	0.146340
501	1048774662													0.294522	4.644996	-2.237289	-0.000383	0.661237	-0.750177	-0.235422	-0.729152	-0.642584	-0.971893	0.176362	0.155949
502	1048791329													1.552240	4.145340	0.399580	-0.029789	0.624394	-0.780541	-0.226368	-0.764813	-0.603173	-0.973586	0.158722	0.164126
503	1048807996													3.091124	2.596444	1.066246	-0.055937	0.586817	-0.807785	-0.214905	-0.797165	-0.564220	-0.975032	0.142036	0.170701
504	1048824663													4.630955	0.855886	1.057150	-0.081869	0.556574	-0.826754	-0.202373	-0.821541	-0.533025	-0.975880	0.123674	0.179894
505	1048841330													4.362448	-0.490640	0.661625	-0.105254	0.539712	-0.835244	-0.190011	-0.835350	-0.515836	-0.976124	0.104412	0.190475
506	1048857997													2.406286	-0.929609	0.546315	-0.124041	0.538060	-0.833730	-0.178689	-0.838595	-0.514615	-0.976055	0.085145	0.200165
507	1048874664													0.554992	0.199912	0.471230	-0.137858	0.544034	-0.827660	-0.168042	-0.836372	-0.521771	-0.976093	0.067151	0.206721
508	1048891331													0.245976	1.611694	0.210626	-0.148977	0.551524	-0.820748	-0.157592	-0.832644	-0.530913	-0.976202	0.050250	0.210960
509	1048907998													0.513266	2.121910	-0.205183	-0.159427	0.556718	-0.815259	-0.145879	-0.830041	-0.538285	-0.976372	0.033112	0.213544
510	1048924665													0.547463	1.967731	-0.480341	-0.170954	0.556894	-0.812800	-0.132574	-0.830444	-0.541098	-0.976319	0.015254	0.215797
511	1048941332													0.641611	1.534680	-0.259898	-0.183839	0.553347	-0.812410	-0.118812	-0.832946	-0.540448	-0.975749	-0.002831	0.218873
512	1048957999													0.841170	0.825554	-0.051920	-0.197392	0.545761	-0.814359	-0.104948	-0.837694	-0.535962	-0.974691	-0.020329	0.222631
513	1048974666													0.535589	0.231459	-0.042508	-0.210423	0.536806	-0.817044	-0.091928	-0.842919	-0.530130	-0.973279	-0.036442	0.226717
514	1048991333													-0.644050	0.786535	0.076598	-0.222934	0.523315	-0.822461	-0.078852	-0.850609	-0.519852	-0.971639	-0.051040	0.230894
515	1049008000													-0.576859	0.538661	0.048034	-0.234551	0.503850	-0.831337	-0.065005	-0.861409	-0.503735	-0.969928	-0.064111	0.234797
516	1049024667													-0.590297	0.670892	0.035789	-0.245778	0.479572	-0.842380	-0.050231	-0.874170	-0.483015	-0.968024	-0.076401	0.238941
517	1049041334													-0.155557	0.099657	0.000363	-0.256292	0.448572	-0.856211	-0.033168	-0.889357	-0.456009	-0.966030	-0.088472	0.242813
518	1049058001													0.244230	-0.900482	-0.012397	-0.266292	0.413500	-0.870693	-0.014611	-0.904937	-0.425294	-0.963782	-0.100531	0.247019
519	1049074668													0.255592	-2.028988	0.133087	-0.275037	0.377632	-0.884165	0.004044	-0.919170	-0.393841	-0.961425	-0.111896	0.251278
520	1049091335													-0.300342	-2.856143	0.113297	-0.280155	0.344474	-0.896019	0.021416	-0.930922	-0.364588	-0.959716	-0.121330	0.253425
521	1049108002													-0.256887	-2.776352	-0.050145	-0.282329	0.314744	-0.906216	0.036966	-0.940375	-0.338125	-0.958605	-0.128962	0.253860
522	1049124669													0.217621	-2.077087	-0.031125	-0.284366	0.290249	-0.913724	0.050591	-0.947200	-0.316628	-0.957380	-0.136265	0.254668
523	1049141336													0.539348	-1.405420	0.047833	-0.286708	0.270217	-0.919120	0.063151	-0.951980	-0.299577	-0.955934	-0.143934	0.255876
524	1049158003													0.493767	-1.233308	0.228377	-0.288929	0.252998	-0.923316	0.075138	-0.955481	-0.285324	-0.954397	-0.151814	0.257056
525	1049174670													0.589883	-1.581550	0.272431	-0.291005	0.236824	-0.926947	0.086977	-0.958317	-0.272145	-0.952760	-0.159819	0.258277
526	1049191337													0.390379	-1.336997	0.057097	-0.293438	0.219670	-0.930397	0.099376	-0.960959	-0.258228	-0.950799	-0.168233	0.260152
527	1049208004													0.177672	-1.019643	-0.087059	-0.295711	0.200075	-0.934090	0.112846	-0.963658	-0.242133	-0.948589	-0.177010	0.262386
528	1049224671													-0.094420	-0.844605	0.065128	-0.297349	0.179352	-0.937772	0.127142	-0.966012	-0.225068	-0.946265	-0.186154	0.264440
529	1049241338													-0.227528	-0.978505	0.189520	-0.297739	0.158710	-0.941362	0.141668	-0.967820	-0.207978	-0.944077	-0.195284	0.265674
530	1049258005													-0.421034	-1.235073	0.229922	-0.297527	0.139647	-0.944445	0.155356	-0.968978	-0.192216	-0.941988	-0.203915	0.266602
531	1049274672													-0.548874	-1.780591	0.403178	-0.296823	0.121628	-0.947155	0.167721	-0.969797	-0.177096	-0.940088	-0.211424	0.267458
532	1049291339													-0.138309	-2.316889	0.549229	-0.295144	0.104533	-0.949717	0.178604	-0.970440	-0.162318	-0.938611	-0.217531	0.267749
533	1049308006													0.534554	-2.579670	0.555835	-0.292574	0.089179	-0.952075	0.187987	-0.970849	-0.148707	-0.937583	-0.222486	0.267280
534	1049324673													0.761415	-2.778084	0.536816	-0.289653	0.076817	-0.954044	0.196067	-0.970874	-0.137699	-0.936835	-0.226941	0.266155
535	1049341340													0.449252	-3.201248	0.488833	-0.286518	0.066792	-0.955744	0.203555	-0.970548	-0.128849	-0.936201	-0.231464	0.264484
536	1049358007													-0.187003	-3.747049	0.328403	-0.282703	0.057511	-0.957482	0.210884	-0.970052	-0.120531	-0.935739	-0.235992	0.262108
537	1049374674													-0.692639	-4.453162	0.172610	-0.277856	0.048333	-0.959406	0.217705	-0.969579	-0.111896	-0.935628	-0.239958	0.258881
538	1049391341													-0.913687	-5.764370	1.274452	-0.272973	0.038910	-0.961235	0.223259	-0.969340	-0.102640	-0.935757	-0.242623	0.255916
539	1049408008													-0.984613	-6.407535	2.310110	-0.266781	0.032890	-0.963196	0.225888	-0.969444	-0.095668	-0.936911	-0.243096	0.251200
540	1049424675													-1.431363	-6.246154	1.878254	-0.258400	0.035966	-0.965368	0.222944	-0.970111	-0.095819	-0.939960	-0.239983	0.242658
541	1049441342													-1.687251	-6.561774	1.704597	-0.247748	0.044690	-0.967793	0.214539	-0.971605	-0.099787	-0.944772	-0.232351	0.231126
542	1049458009													-1.978594	-7.203166	1.988159	-0.235806	0.062403	-0.969795	0.199574	-0.973556	-0.111171	-0.951087	-0.219761	0.217116
543	1049474676													-2.980080	-6.605028	1.216208	-0.217952	0.098666	-0.970959	0.175917	-0.974610	-0.138525	-0.959974	-0.201000	0.195061
544	1049491343													-3.464470	-5.185616	-0.380575	-0.190475	0.142455	-0.971301	0.147209	-0.974083	-0.171731	-0.970592	-0.175695	0.164568
545	1049508010													-1.747331	-2.936634	-0.670560	-0.157772	0.179733	-0.970981	0.118379	-0.972762	-0.199298	-0.980354	-0.146387	0.132198
546	1049524677													0.848789	-1.156795	-0.060449	-0.127181	0.204857	-0.970494	0.091374	-0.971859	-0.217119	-0.987662	-0.116292	0.104883
547	1049541344													2.713620	0.346057	3.323720	-0.105803	0.222182	-0.969248	0.064656	-0.971119	-0.229669	-0.992283	-0.086968	0.088381
548	1049558011													2.505873	2.885109	6.134336	-0.088804	0.239368	-0.966859	0.038566	-0.969140	-0.243475	-0.995302	-0.058910	0.076832
549	1049574678													0.810640	4.366920	5.262017	-0.073973	0.256864	-0.963612	0.015519	-0.965846	-0.258651	-0.997139	-0.034087	0.067461
550	1049591345													0.287256	3.819375	2.165982	-0.053476	0.269026	-0.961647	-0.007602	-0.963107	-0.269011	-0.998540	-0.007075	0.053548
551	1049608012													2.016683	0.534788	-0.301285	-0.029944	0.282080	-0.958924	-0.033690	-0.959094	-0.281078	-0.998984	0.023890	0.038223
552	1049624679													2.826072	-0.762807	-0.413579	-0.011657	0.303932	-0.952623	-0.061917	-0.951079	-0.302681	-0.998013	0.055455	0.029905
553	1049641346													2.802139	-0.741076	0.232264	0.002906	0.327338	-0.944903	-0.091059	-0.940895	-0.326229	-0.995841	0.086990	0.027073
554	1049658013													2.919072	0.561178	0.525250	0.017807	0.352072	-0.935803	-0.119754	-0.928463	-0.351590	-0.992644	0.118327	0.025629
555	1049674680													2.700818	2.990028	0.246880	0.034670	0.377748	-0.925259	-0.146617	-0.913876	-0.378595	-0.988586	0.148785	0.023700
556	1049691347													2.895306	4.318632	-0.490248	0.051074	0.401076	-0.914620	-0.170251	-0.898913	-0.403695	-0.984076	0.176333	0.022372
557	1049708014													2.631989	3.711551	-1.292642	0.066336	0.425288	-0.902624	-0.190215	-0.882637	-0.429850	-0.979499	0.200207	0.022346
558	1049724681													1.668129	3.392451	-2.410523	0.080582	0.449224	-0.889777	-0.206133	-0.865872	-0.455823	-0.975200	0.220144	0.022826
559	1049741348													1.352124	3.247875	-2.908394	0.095236	0.474029	-0.875344	-0.218756	-0.847879	-0.482956	-0.971121	0.237481	0.022948
560	1049758015													0.832693	2.979685	-3.121234	0.110548	0.500734	-0.858513	-0.228852	-0.827771	-0.512272	-0.967164	0.253104	0.023086
561	1049774682													0.891829	2.954474	-3.251001	0.125062	0.526218	-0.841103	-0.235723	-0.807724	-0.540385	-0.963740	0.265849	0.023026
562	1049791349													0.534394	3.427675	-3.504229	0.137339	0.550188	-0.823670	-0.239989	-0.788291	-0.566571	-0.961012	0.275484	0.023776
563	1049808016													0.095191	3.830713	-4.086450	0.145904	0.571726	-0.807367	-0.242538	-0.770522	-0.589466	-0.959108	0.281823	0.026244
564	1049824683													-0.238609	3.941669	-4.250999	0.149087	0.590285	-0.793308	-0.243927	-0.755526	-0.608013	-0.958265	0.284156	0.031347
565	1049841350													-0.642323	3.594427	-4.312105	0.147225	0.607126	-0.780847	-0.244959	-0.742476	-0.623478	-0.958290	0.283067	0.039410
566	1049858017													-1.045451	2.815434	-3.717211	0.141318	0.621743	-0.770367	-0.244673	-0.732099	-0.635741	-0.959252	0.278330	0.048665
567	1049874684													-0.896199	1.803994	-2.982194	0.133855	0.633207	-0.762320	-0.243131	-0.724749	-0.644690	-0.960713	0.271639	0.056941
568	1049891351													-0.020784	0.618636	-1.230770	0.124777	0.640496	-0.757757	-0.241495	-0.721152	-0.649322	-0.962347	0.264015	0.064694
569	1049908018													0.649286	-0.192925	0.087375	0.113014	0.646187	-0.754765	-0.239419	-0.719538	-0.651877	-0.964317	0.254376	0.073391
570	1049924685													-0.464893	-2.017985	2.576985	0.104129	0.656068	-0.747483	-0.237431	-0.713440	-0.659264	-0.965807	0.246124	0.081481
571	1049941352													-2.399731	-5.202818	4.848349	0.103122	0.671514	-0.733781	-0.236516	-0.700001	-0.673839	-0.966140	0.243039	0.086638
572	1049958019													-3.115163	-7.762678	5.148021	0.102725	0.683100	-0.723064	-0.240180	-0.688368	-0.684443	-0.965278	0.243975	0.093354
573	1049974686													-1.669341	-7.510127	4.978083	0.101341	0.694429	-0.712389	-0.247779	-0.675892	-0.694100	-0.963502	0.246855	0.103570
574	1049991353													-0.546069	-4.018101	3.206025	0.108368	0.712675	-0.693074	-0.254202	-0.654135	-0.712382	-0.961061	0.253380	0.110276
575	1050008020													-0.335857	-1.252867	0.335814	0.117294	0.732892	-0.670157	-0.257348	-0.629333	-0.733288	-0.959174	0.258474	0.114792
576	1050024687													-0.469355	-0.178706	-1.794503	0.118467	0.748881	-0.652030	-0.257926	-0.610906	-0.748510	-0.958874	0.256850	0.120784
577	1050041354													0.199694	1.677318	-2.215757	0.110878	0.760183	-0.640178	-0.256992	-0.600310	-0.757352	-0.960032	0.248495	0.128800
578	1050058021													-1.903242	5.670226	3.567212	0.093409	0.762838	-0.639807	-0.253517	-0.603212	-0.756217	-0.962810	0.232840	0.137046
579	1050074688													-4.482943	5.939822	4.902721	0.080061	0.747665	-0.659232	-0.246971	-0.625856	-0.739804	-0.965710	0.222041	0.134545
580	1050091355													-6.140883	-0.443669	4.677831	0.074944	0.736308	-0.672483	-0.239452	-0.641360	-0.728917	-0.968011	0.215655	0.128245
581	1050108022													-2.566365	-0.940607	4.171554	0.074512	0.728794	-0.680667	-0.237588	-0.649935	-0.721898	-0.968504	0.215508	0.124725
582	1050124689													0.621354	7.878798	-3.366082	0.065022	0.707809	-0.703405	-0.241619	-0.672754	-0.699301	-0.968190	0.215426	0.127277
583	1050141356													0.397910	8.693403	-6.762792	0.043665	0.692084	-0.720495	-0.244335	-0.691885	-0.679409	-0.968707	0.205708	0.138889
584	1050158023													-1.321248	6.753103	-6.266170	0.016708	0.670918	-0.741344	-0.244071	-0.716281	-0.653736	-0.969613	0.191863	0.151784
585	1050174690													1.843158	6.534438	-3.457195	-0.019435	0.632918	-0.773975	-0.238394	-0.754727	-0.611192	-0.970974	0.172632	0.165552
586	1050191357													3.664283	5.040068	0.452906	-0.050119	0.593455	-0.803305	-0.226372	-0.790133	-0.569601	-0.972751	0.153298	0.173943
587	1050208024													4.659998	2.298119	1.545864	-0.073834	0.557415	-0.826945	-0.209402	-0.819387	-0.533624	-0.975038	0.133765	0.177222
588	1050224691													5.060531	-0.551407	1.745688	-0.092274	0.536664	-0.838735	-0.191512	-0.836168	-0.513952	-0.977143	0.113204	0.179934
589	1050241358													3.910985	-1.880562	0.579833	-0.107767	0.534785	-0.838088	-0.175083	-0.840031	-0.513511	-0.978638	0.091396	0.184159
590	1050258025													1.414887	-0.431479	0.273087	-0.120633	0.546147	-0.828958	-0.160505	-0.834800	-0.526638	-0.979636	0.069522	0.188363
591	1050274692													-0.149819	0.940937	0.576511	-0.131039	0.559333	-0.818520	-0.146702	-0.827490	-0.541977	-0.980463	0.049058	0.190488
592	1050291359													-0.042329	1.597439	0.474167	-0.139877	0.566794	-0.811899	-0.132910	-0.823287	-0.551846	-0.981208	0.030719	0.190492
593	1050308026													0.981551	1.291344	-0.118580	-0.148354	0.569724	-0.808335	-0.119509	-0.821718	-0.557223	-0.981687	0.013937	0.189993
594	1050324693													1.064172	1.395412	-0.932663	-0.158187	0.569422	-0.806681	-0.106363	-0.822041	-0.559407	-0.981664	-0.002690	0.190602
595	1050341360													1.101714	1.298098	-0.677753	-0.169703	0.568129	-0.805252	-0.093928	-0.822708	-0.560650	-0.981009	-0.019508	0.192980
596	1050358027													0.319406	1.079398	-0.241689	-0.180705	0.565356	-0.804810	-0.081674	-0.824080	-0.560554	-0.980140	-0.035562	0.195090
597	1050374694													-0.393060	0.850322	0.071146	-0.191618	0.557526	-0.807742	-0.068781	-0.828597	-0.555604	-0.979057	-0.050906	0.197121
598	1050391361													-0.567518	0.448244	0.273054	-0.202366	0.544783	-0.813793	-0.054643	-0.835973	-0.546043	-0.977784	-0.066033	0.198941
599	1050408028													-0.449157	0.205904	0.062389	-0.213157	0.527063	-0.822660	-0.039301	-0.845955	-0.531804	-0.976227	-0.081027	0.201035
600	1050424695													-0.089992	-0.181400	-0.041084	-0.224145	0.504594	-0.833753	-0.022346	-0.857957	-0.513235	-0.974299	-0.096408	0.203583
601	1050441362													0.114229	-0.660344	-0.070085	-0.234951	0.477996	-0.846355	-0.003311	-0.871118	-0.491062	-0.972002	-0.112573	0.206253
602	1050458029													-0.463206	-1.083037	0.047298	-0.243902	0.449858	-0.859151	0.017706	-0.883692	-0.467734	-0.969638	-0.129294	0.207569
603	1050474696													-1.057907	-1.355521	-0.150745	-0.249195	0.422234	-0.871562	0.040058	-0.894689	-0.444891	-0.967624	-0.145778	0.206038
604	1050491363													-0.287313	-1.749801	-0.377709	-0.252042	0.397969	-0.882097	0.062230	-0.902973	-0.425168	-0.965713	-0.162053	0.202821
605	1050508030													0.659134	-2.229150	-0.366661	-0.254041	0.378116	-0.890220	0.083047	-0.908489	-0.409575	-0.963621	-0.177979	0.199392
606	1050524697													1.363218	-2.675079	-0.174140	-0.256491	0.361906	-0.896235	0.101997	-0.911942	-0.397439	-0.961150	-0.193353	0.196992
607	1050541364													1.848951	-2.871989	-0.015724	-0.259877	0.349332	-0.900240	0.118613	-0.913663	-0.388781	-0.958329	-0.207815	0.196005
608	1050558031													1.488343	-2.795682	0.008348	-0.264155	0.340019	-0.902557	0.132740	-0.914074	-0.383208	-0.955302	-0.221032	0.196323
609	1050574698													0.725586	-2.661874	0.157910	-0.268341	0.330650	-0.904801	0.144916	-0.914704	-0.377247	-0.952362	-0.232351	0.197536
610	1050591365													0.353365	-2.421638	0.085036	-0.271539	0.321543	-0.907126	0.154551	-0.915739	-0.370859	-0.949937	-0.240900	0.198964
611	1050608032													0.510901	-2.319199	-0.342454	-0.273923	0.314802	-0.908772	0.161274	-0.916498	-0.366090	-0.948133	-0.246842	0.200280
612	1050624699													0.803416	-2.101329	-0.547299	-0.275335	0.308671	-0.910447	0.166503	-0.917428	-0.361391	-0.946820	-0.251096	0.201206
613	1050641366													0.918866	-1.741828	-0.251306	-0.275198	0.300588	-0.913188	0.171514	-0.919276	-0.354279	-0.945965	-0.254121	0.201428
614	1050658033													0.930307	-1.630605	0.184832	-0.273367	0.290118	-0.917116	0.177274	-0.921907	-0.344474	-0.945434	-0.256749	0.200588
615	1050674700													1.170872	-2.093209	1.305348	-0.271170	0.278207	-0.921449	0.184240	-0.924615	-0.333382	-0.944734	-0.260171	0.199471
616	1050691367													0.890514	-3.508373	3.547918	-0.269275	0.268283	-0.924941	0.190748	-0.926532	-0.324276	-0.943984	-0.263750	0.198317
617	1050708034													1.146022	-4.381133	3.239733	-0.264209	0.262515	-0.928051	0.195055	-0.927816	-0.317979	-0.944535	-0.265034	0.193933
618	1050724701													0.769638	-5.291312	2.157617	-0.257848	0.262977	-0.929708	0.194528	-0.928412	-0.316561	-0.946400	-0.262479	0.188233
619	1050741368													0.664163	-5.955122	1.954668	-0.250701	0.265198	-0.931031	0.190104	-0.929532	-0.315961	-0.949215	-0.256205	0.182619
620	1050758035													1.145287	-6.218956	2.279862	-0.242634	0.276214	-0.929965	0.179810	-0.929196	-0.322899	-0.953309	-0.245563	0.175788
621	1050774702													0.201498	-5.871047	1.608334	-0.234001	0.304219	-0.923414	0.161843	-0.924343	-0.345538	-0.958671	-0.230305	0.167062
622	1050791369													-2.171439	-6.013681	1.047295	-0.220067	0.346819	-0.911749	0.137915	-0.914212	-0.381045	-0.965686	-0.209599	0.153356
623	1050808036													-3.409757	-5.510467	0.224736	-0.195928	0.392115	-0.898809	0.111270	-0.901764	-0.417660	-0.974285	-0.181842	0.133051
624	1050824703													-2.300899	-3.163006	-0.380733	-0.164985	0.429216	-0.888006	0.084379	-0.890900	-0.446292	-0.982680	-0.148561	0.110769
625	1050841370													-0.061853	-0.750122	-0.314158	-0.136976	0.458410	-0.878122	0.057528	-0.881300	-0.469043	-0.988902	-0.114764	0.094346
626	1050858037													1.018107	1.263102	1.580587	-0.116408	0.482925	-0.867890	0.030239	-0.871702	-0.489102	-0.992741	-0.083180	0.086870
627	1050874704													0.308701	3.891496	3.838223	-0.098140	0.502785	-0.858823	0.003966	-0.862784	-0.505557	-0.995165	-0.053022	0.082680
628	1050891371													-0.749984	5.502304	4.452843	-0.080726	0.518585	-0.851207	-0.019445	-0.854651	-0.518839	-0.996547	-0.025332	0.079076
629	1050908038													-0.699267	4.841625	3.153872	-0.062376	0.528180	-0.846839	-0.041315	-0.849130	-0.526566	-0.997197	0.002142	0.074788
630	1050924705													0.493531	3.021432	1.191917	-0.041121	0.535015	-0.843841	-0.064786	-0.844206	-0.532089	-0.997052	0.032789	0.069376
631	1050941372													1.612318	1.404998	0.006294	-0.021296	0.545655	-0.837739	-0.090227	-0.835559	-0.541941	-0.995694	0.064045	0.067027
632	1050958039													1.856138	0.808416	0.161294	-0.003830	0.561453	-0.827500	-0.116549	-0.822117	-0.557261	-0.993178	0.094310	0.068586
633	1050974706													1.965180	1.293012	1.173068	0.014137	0.579921	-0.814550	-0.144123	-0.804943	-0.575582	-0.989459	0.125532	0.072200
634	1050991373													1.309213	3.158403	0.836853	0.034687	0.596417	-0.801925	-0.171051	-0.787025	-0.592734	-0.984651	0.157730	0.074718
635	1051008040													1.225121	3.864418	-0.156741	0.054759	0.606114	-0.793491	-0.195062	-0.772878	-0.603830	-0.979261	0.187845	0.075908
636	1051024707													1.339124	3.904208	-1.428897	0.071899	0.615576	-0.784791	-0.215742	-0.758602	-0.614799	-0.973800	0.213516	0.078263
637	1051041374													0.670898	3.778732	-2.231288	0.084907	0.625296	-0.775755	-0.233336	-0.744439	-0.625592	-0.968682	0.234129	0.082696
638	1051058041													0.557023	3.266707	-2.680350	0.097228	0.635231	-0.766177	-0.247758	-0.730142	-0.636795	-0.963931	0.251741	0.086394
639	1051074708													0.102901	2.998841	-3.129137	0.110361	0.646966	-0.754490	-0.258726	-0.714254	-0.650309	-0.959626	0.266975	0.088562
640	1051091375													-0.075940	2.442512	-3.489621	0.123137	0.659422	-0.741620	-0.266368	-0.697923	-0.664795	-0.955974	0.279405	0.089709
641	1051108042													-0.339986	2.322259	-3.855704	0.134162	0.671697	-0.728576	-0.271356	-0.682219	-0.678928	-0.953083	0.288790	0.090741
642	1051124709													-0.461756	2.285249	-4.093819	0.141884	0.683394	-0.716130	-0.274232	-0.667997	-0.691793	-0.951139	0.294540	0.092630
643	1051141376													-0.697776	2.321047	-4.396645	0.145227	0.693800	-0.705373	-0.275514	-0.656373	-0.702329	-0.950264	0.296337	0.095828
644	1051158043													-0.576247	2.085901	-4.096601	0.144137	0.703899	-0.695522	-0.275176	-0.646628	-0.711442	-0.950528	0.293936	0.100493
645	1051174710													-0.555235	1.805545	-3.761705	0.140950	0.714565	-0.685222	-0.273551	-0.637077	-0.720627	-0.951474	0.289016	0.105674
646	1051191377													-0.557761	1.550827	-3.289557	0.136253	0.723777	-0.676448	-0.270473	-0.629697	-0.728235	-0.953037	0.282185	0.109964
647	1051208044													0.082798	0.753178	-1.751235	0.130930	0.731543	-0.669106	-0.266680	-0.624051	-0.734467	-0.954850	0.274601	0.113381
648	1051224711													0.844725	0.430262	-0.584732	0.123052	0.739469	-0.661849	-0.262132	-0.619013	-0.740345	-0.957155	0.264593	0.117668
