sep=,
DeviceTag:,Xsens DOT 5,,,,,,,,,,,,,,,,,
FirmwareVersion:,3.0.0,,,,,,,,,,,,,,,,,
AppVersion:,2023.6.1,,,,,,,,,,,,,,,,,
SyncStatus:,Un-synced,,,,,,,,,,,,,,,,,
OutputRate:,60Hz,,,,,,,,,,,,,,,,,
FilterProfile:,General,,,,,,,,,,,,,,,,,
Measurement Mode:,Sensor fusion Mode - Extended (Quaternion),,,,,,,,,,,,,,,,,
StartTime:,2024-03-15 15:49:47.561 +0530,,,,,,,,,,,,,,,,,
 2024,,,,,,,,,,,,,,,,,,,

PacketCounter,SampleTimeFine,Quat_W,Quat_X,Quat_Y,Quat_Z,FreeAcc_X,FreeAcc_Y,FreeAcc_Z,Status
1, 753473435, 0.31697494, 0.6711449, -0.3469811, 0.5733197, -0.012168492, 0.005050275, 0.0767622, 0
2, 753490102, 0.31643575, 0.67138153, -0.34663013, 0.57355285, -0.03046247, -0.01125656, 0.06261349, 0
3, 753506769, 0.3160699, 0.6717217, -0.34607014, 0.57369447, 0.014331763, -0.016472904, 0.07672691, 0
4, 753523436, 0.3159423, 0.6717039, -0.34592855, 0.5738711, 0.052494254, -0.016764142, 0.056554794, 0
5, 753540103, 0.31582883, 0.6714832, -0.3460147, 0.5741397, 0.016366513, -0.035330694, 0.056552887, 0
6, 753556770, 0.31600797, 0.67118144, -0.34628195, 0.5742329, -0.0378641, -0.06538268, 0.09571648, 0
7, 753573437, 0.3163201, 0.67096937, -0.34647137, 0.5741946, -0.017386403, -0.044948455, 0.08184719, 0
8, 753590104, 0.3162532, 0.6710069, -0.34631288, 0.57428306, -0.00420752, -0.026398892, 0.07024956, 0
9, 753606771, 0.3163784, 0.67090744, -0.34645283, 0.5742461, -0.008942194, -0.040616326, 0.06421757, 0
10, 753623438, 0.31635034, 0.67090225, -0.34646672, 0.5742591, 0.005973831, -0.033060696, 0.06589031, 0
11, 753640105, 0.31621286, 0.6709635, -0.3463818, 0.5743145, -0.009229856, 0.016371878, 0.08907795, 0
12, 753656772, 0.31601894, 0.6710404, -0.3463429, 0.5743548, -0.04428697, 0.0011175647, 0.09103966, 0
13, 753673439, 0.31588525, 0.6710884, -0.3463911, 0.57434326, -0.036610752, -0.0068792817, 0.09402561, 0
14, 753690106, 0.3157346, 0.6711646, -0.34639803, 0.57433295, -0.017505758, -0.0057315426, 0.076052666, 0
15, 753706773, 0.31571004, 0.67117834, -0.34658292, 0.57421875, -0.015224809, -0.014839472, 0.079722404, 0
16, 753723440, 0.31568292, 0.6712243, -0.34664926, 0.57413995, 0.013419941, -0.020977808, 0.07502556, 0
17, 753740107, 0.31566417, 0.6712596, -0.34675485, 0.5740451, 0.006378948, -0.033830028, 0.11024094, 0
18, 753756774, 0.3155751, 0.6713417, -0.3467764, 0.5739852, 0.024523506, -0.010972251, 0.08673954, 0
19, 753773441, 0.31545585, 0.6714193, -0.34680933, 0.5739401, -0.0032657478, -0.039612755, 0.09229851, 0
20, 753790108, 0.31534046, 0.6714989, -0.34682822, 0.573899, -0.040287316, -0.058461603, 0.06387329, 0
21, 753806775, 0.31530553, 0.6715323, -0.34694582, 0.57380795, -0.055517934, -0.04246746, 0.07435417, 0
22, 753823442, 0.31524032, 0.6715942, -0.34704202, 0.57371294, -0.019953895, -0.01884706, 0.08450794, 0
23, 753840109, 0.3150155, 0.6717513, -0.3469557, 0.57370484, -0.023497246, -0.040775914, 0.090880394, 0
24, 753856776, 0.3149521, 0.67181104, -0.34704486, 0.57361585, -0.012790306, -0.07784241, 0.08243656, 0
25, 753873443, 0.31486028, 0.67188424, -0.34709224, 0.5735518, -0.041872807, -0.061339777, 0.04505253, 0
26, 753890110, 0.31485534, 0.6719197, -0.34724095, 0.57342297, -0.015208939, -0.06313392, 0.07293701, 0
27, 753906777, 0.31484208, 0.67194045, -0.34737995, 0.5733217, 0.00341159, -0.03927838, 0.13352013, 0
28, 753923444, 0.31489825, 0.6719044, -0.34762746, 0.57318324, -0.020387733, -0.038370915, 0.072675705, 0
29, 753940111, 0.3148139, 0.67195946, -0.34769404, 0.5731244, -6.270656E-4, -0.028119942, 0.041911125, 0
30, 753956778, 0.3147066, 0.67202276, -0.3477584, 0.5730701, -0.0015518505, -0.037165735, 0.08089733, 0
31, 753973445, 0.31460437, 0.67210853, -0.34780976, 0.5729946, 0.011911006, -0.062964045, 0.060297012, 0
32, 753990112, 0.31455114, 0.67219317, -0.34789586, 0.57287216, 0.011549361, -0.09916845, 0.100346565, 0
33, 754006779, 0.3144963, 0.67227703, -0.34793425, 0.5727805, 0.01256724, -0.10063045, 0.099612236, 0
34, 754023446, 0.31445456, 0.672357, -0.34794897, 0.57270056, 0.013238337, -0.10320174, 0.084667206, 0
35, 754040113, 0.31430343, 0.6725018, -0.34785542, 0.57267034, 0.006448908, -0.07540254, 0.09536266, 0
36, 754056780, 0.31424412, 0.67258143, -0.3478768, 0.5725963, -0.029378654, -0.08788418, 0.07577133, 0
37, 754073447, 0.31423143, 0.67265207, -0.34797454, 0.57246095, -0.017445521, -0.06992067, 0.06562519, 0
38, 754090114, 0.31412983, 0.6727669, -0.34801143, 0.5723594, -0.03424252, -0.063472316, 0.079304695, 0
39, 754106781, 0.31409207, 0.67283356, -0.34812325, 0.57223374, -0.022339562, -0.09935196, 0.10812187, 0
40, 754123448, 0.31391662, 0.67296964, -0.34808543, 0.572193, 0.00910983, -0.095967524, 0.08672714, 0
41, 754140115, 0.31381226, 0.6730552, -0.34808773, 0.57214826, -0.027073007, -0.09637432, 0.10587883, 0
42, 754156782, 0.31375468, 0.6731095, -0.34812224, 0.57209504, -0.028053893, -0.09666041, 0.09684658, 0
43, 754173449, 0.31362888, 0.6732034, -0.34810933, 0.5720614, -0.01930325, -0.056691825, 0.09257412, 0
44, 754190116, 0.3135607, 0.67324835, -0.34815302, 0.57201916, -0.043184828, -0.08936071, 0.081902504, 0
45, 754206783, 0.31346866, 0.67329115, -0.3481968, 0.5719927, -0.027527073, -0.12496341, 0.07406521, 0
46, 754223450, 0.31337145, 0.6733369, -0.34822682, 0.5719737, -0.049241357, -0.14846691, 0.08442497, 0
47, 754240117, 0.31337878, 0.6733309, -0.3483768, 0.5718855, -0.0047889887, -0.12047572, 0.086276054, 0
48, 754256784, 0.31332687, 0.6733453, -0.34847, 0.5718401, 0.020928748, -0.08952677, 0.08911419, 0
49, 754273451, 0.31317607, 0.67342365, -0.34847465, 0.5718277, 0.057338003, -0.086425975, 0.11249542, 0
50, 754290118, 0.3129261, 0.6735466, -0.34839085, 0.5718709, 0.021701096, -0.1357164, 0.075172424, 0
51, 754306785, 0.3127576, 0.6736262, -0.34839582, 0.57186615, -0.020094262, -0.13382928, 0.07851887, 0
52, 754323452, 0.31265476, 0.67367303, -0.3484275, 0.57184786, -0.019026987, -0.14240167, 0.0733366, 0
53, 754340119, 0.31252018, 0.673742, -0.34841794, 0.57184595, 0.04616649, -0.09530056, 0.08201885, 0
54, 754356786, 0.3124277, 0.6738092, -0.34843516, 0.57180697, 0.046199903, -0.082622014, 0.06423855, 0
55, 754373453, 0.31225052, 0.67394, -0.34840986, 0.571765, 0.04789223, -0.14143163, 0.074995995, 0
56, 754390120, 0.3120592, 0.67409927, -0.34837, 0.5717061, -0.0011240466, -0.12740126, 0.09067249, 0
57, 754406787, 0.3118559, 0.6742888, -0.34833965, 0.57161194, 0.056399584, -0.10507746, 0.07971859, 0
58, 754423454, 0.31160495, 0.6744898, -0.34829593, 0.5715381, -0.0010004439, -0.15322126, 0.063384056, 0
59, 754440121, 0.31131792, 0.6747348, -0.34820482, 0.57146084, 0.021828834, -0.18100928, 0.09469414, 0
60, 754456788, 0.3110565, 0.6749638, -0.3481777, 0.57134926, 0.037721165, -0.19307451, 0.036818504, 0
61, 754473455, 0.3108181, 0.6752283, -0.3481163, 0.5712038, 0.06477774, -0.26257184, 0.016999245, 0
62, 754490122, 0.31066817, 0.6754806, -0.34810513, 0.5709939, 0.067516446, -0.2537556, 0.052919388, 0
63, 754506789, 0.31061694, 0.67570424, -0.3481497, 0.5707299, 0.059961263, -0.18778664, 0.07487965, 0
64, 754523456, 0.3105328, 0.67596006, -0.34814033, 0.5704785, 0.10196907, -0.112767875, 0.09326267, 0
65, 754540123, 0.31037933, 0.6762451, -0.34811524, 0.57023954, 0.0651329, -0.12347057, 0.11790943, 0
66, 754556790, 0.3101684, 0.6765475, -0.34798148, 0.57007724, -0.0260691, -0.15899907, 0.10600376, 0
67, 754573457, 0.30995148, 0.67683303, -0.34786436, 0.56992763, -0.09980614, -0.15987904, 0.08952427, 0
68, 754590124, 0.30981082, 0.6770505, -0.34785095, 0.56975394, -0.08728427, -0.15602523, 0.13185596, 0
69, 754606791, 0.30968434, 0.67720467, -0.34784925, 0.56964064, -0.04956098, -0.13690549, 0.102822304, 0
70, 754623458, 0.3094972, 0.6773634, -0.3477533, 0.56961226, -0.045584798, -0.13786905, 0.09765339, 0
71, 754640125, 0.30930108, 0.67749226, -0.3476256, 0.5696433, -0.078540556, -0.14732634, 0.089865685, 0
72, 754656792, 0.30913252, 0.6775641, -0.34757328, 0.5696813, -0.035194684, -0.12899446, 0.07300377, 0
73, 754673459, 0.30878532, 0.6776812, -0.34732112, 0.5698841, -0.052273646, -0.1521978, 0.14428234, 0
74, 754690126, 0.3084072, 0.6777227, -0.34705546, 0.5702013, -0.03819188, -0.156255, 0.12726498, 0
75, 754706793, 0.30787593, 0.67777085, -0.3466895, 0.5706537, -0.0664561, -0.13241623, 0.11325264, 0
76, 754723460, 0.30722612, 0.6777937, -0.34626955, 0.57123154, -0.095237754, -0.121417604, 0.08141422, 0
77, 754740127, 0.3067515, 0.6776877, -0.34605548, 0.57174176, -0.108255595, -0.13739431, 0.0068273544, 0
78, 754756794, 0.30650637, 0.6774739, -0.34607744, 0.5721133, -0.01914288, -0.19701326, -0.018989563, 0
79, 754773461, 0.3064663, 0.67726517, -0.34622544, 0.5722922, 0.32488647, -0.14200628, 0.025909424, 0
80, 754790128, 0.30633834, 0.67721605, -0.34622097, 0.57242167, 0.4664379, -0.17455333, -0.12128067, 0
81, 754806795, 0.30639744, 0.6773467, -0.34617212, 0.57226485, 0.3604057, -0.34182328, -0.007946968, 0
82, 754823462, 0.30653077, 0.67762774, -0.34611, 0.5718982, 0.37907517, -0.4111673, -0.05997467, 0
83, 754840129, 0.3067826, 0.6780302, -0.3460906, 0.5712977, 0.38808668, -0.37465087, -0.01675415, 0
84, 754856796, 0.30684987, 0.6786023, -0.34571183, 0.5708114, 0.22938353, -0.30163476, 0.095454216, 0
85, 754873463, 0.30687615, 0.6792131, -0.34522313, 0.5703666, 0.036341418, -0.1712905, -0.002453804, 0
86, 754890130, 0.30667928, 0.6798474, -0.3445384, 0.5701305, -0.1617551, -0.0067903236, 0.120820045, 0
87, 754906797, 0.3064122, 0.680332, -0.34374923, 0.5701723, -0.47188145, 0.09771964, 0.27865314, 0
88, 754923464, 0.30641568, 0.6804727, -0.34335384, 0.5702409, -0.54209, 0.112150304, 0.36897373, 0
89, 754940131, 0.3066687, 0.6802609, -0.34323546, 0.57042867, -0.45110938, 0.11615432, 0.304677, 0
90, 754956798, 0.30699643, 0.6798337, -0.34319067, 0.57078844, -0.3383518, 0.10333183, 0.17430115, 0
91, 754973465, 0.30731386, 0.67918843, -0.34322473, 0.57136536, -0.48262393, -0.115274794, 0.16762352, 0
92, 754990132, 0.30807105, 0.67829496, -0.34355208, 0.5718218, -0.40794745, -0.18301845, 0.2442894, 0
93, 755006799, 0.30887696, 0.67736495, -0.34391832, 0.5722694, 0.060828157, 0.012785388, 0.25924015, 0
94, 755023466, 0.30923885, 0.67659956, -0.34375498, 0.57307684, 0.25338805, 0.09669707, 0.120326996, 0
95, 755040133, 0.30946413, 0.6759466, -0.34325823, 0.57402265, 0.11130241, -0.028519806, -0.07569599, 0
96, 755056800, 0.31014207, 0.6752059, -0.34301123, 0.57467586, -0.10827247, -0.079794794, -0.103857994, 0
97, 755073467, 0.31165713, 0.67416495, -0.34337372, 0.57486194, -0.2931434, -0.119976394, -0.06944466, 0
98, 755090134, 0.3141177, 0.67284435, -0.34444052, 0.57443124, -0.19943066, -0.06987462, 0.08709431, 0
99, 755106801, 0.3170857, 0.67127573, -0.34602278, 0.5736844, 0.038411483, -0.20484158, 0.091775894, 0
100, 755123468, 0.3203889, 0.66947186, -0.34799227, 0.5727652, -0.049241915, -0.7781933, 0.028508186, 0
101, 755140135, 0.32414156, 0.66742295, -0.3504549, 0.5715421, -0.2531632, -1.2248461, -0.030653, 0
102, 755156802, 0.32796007, 0.6652327, -0.35322306, 0.5702115, -0.24441756, -1.0836719, -0.035022736, 0
103, 755173469, 0.3311091, 0.6633826, -0.35572907, 0.56898785, -0.031155583, -0.5021239, 0.07507229, 0
104, 755190136, 0.33327132, 0.6619351, -0.3578812, 0.568061, 0.1653988, -0.31278828, 0.29833603, 0
105, 755206803, 0.33475602, 0.66070086, -0.35965493, 0.56750435, -0.08400343, -0.2526908, 0.2415514, 0
106, 755223470, 0.33626354, 0.6593988, -0.36158186, 0.566903, -0.17595689, -0.44899327, 0.04729271, 0
107, 755240137, 0.3383897, 0.65779746, -0.36414856, 0.5658542, -0.043832455, -0.52323264, 0.07292843, 0
108, 755256804, 0.34100482, 0.65596634, -0.36714473, 0.56447196, 0.041674662, -0.3555595, 0.018004417, 0
109, 755273471, 0.34412265, 0.65410846, -0.37050632, 0.5625361, 0.23080283, 0.043410238, 0.142025, 0
110, 755290138, 0.34716073, 0.6522988, -0.37372637, 0.5606378, 0.67156845, 0.44296837, 0.04638672, 0
111, 755306805, 0.34977356, 0.65057725, -0.37626708, 0.559313, 0.6457618, 0.39186972, -0.230834, 0
112, 755323472, 0.35199156, 0.64921886, -0.37790638, 0.5583938, 0.53730315, 0.35639766, 0.049797058, 0
113, 755340139, 0.35380623, 0.64811105, -0.37907562, 0.55774105, 0.60214627, -0.12182373, 0.1639843, 0
114, 755356806, 0.35513926, 0.6473619, -0.38005272, 0.5570987, 0.45624796, -0.51389766, 0.18984795, 0
115, 755373473, 0.35590848, 0.6469536, -0.38044313, 0.55681527, 0.6927897, -0.63325334, 0.10166359, 0
116, 755390140, 0.35585973, 0.646828, -0.38007268, 0.5572452, 0.8605735, -0.67525274, -0.18981361, 0
117, 755406807, 0.35520002, 0.6470697, -0.3789274, 0.5581649, 0.27531824, -0.74771076, -0.020421982, 0
118, 755423474, 0.35408664, 0.64742374, -0.37734613, 0.55953133, -0.20475352, -0.22341998, 0.026239395, 0
119, 755440141, 0.35281324, 0.64772725, -0.3756356, 0.5611329, -0.31142953, 0.31603792, -0.046824455, 0
120, 755456808, 0.3520211, 0.6478957, -0.3743606, 0.5622869, -0.8302431, 0.33969924, 0.32568073, 0
121, 755473475, 0.35265943, 0.6473442, -0.37467223, 0.56231457, -0.06881528, -0.27969405, 0.5150261, 0
122, 755490142, 0.3533666, 0.6465332, -0.3750414, 0.5625575, 0.026752712, -0.41452646, 0.035630226, 0
123, 755506809, 0.35428703, 0.6459137, -0.37511426, 0.5626416, 0.12573946, -0.15512246, -0.0051927567, 0
124, 755523476, 0.35496962, 0.64548236, -0.37482417, 0.5628998, 0.7741724, 0.13848326, -0.028330803, 0
125, 755540143, 0.35474575, 0.64562106, -0.37336472, 0.56385106, 0.7283199, 0.3618051, 0.3262558, 0
126, 755556810, 0.35411435, 0.64599204, -0.37136382, 0.56514275, 0.3844984, 0.06775035, 0.08464718, 0
127, 755573477, 0.35400465, 0.6463928, -0.36966753, 0.56586516, 0.1390312, -0.28793186, -0.009173393, 0
128, 755590144, 0.3550157, 0.64648634, -0.36882615, 0.5656735, 0.6175714, -0.53707993, -0.09268379, 0
129, 755606811, 0.35539258, 0.647105, -0.36748618, 0.5656017, 0.78053415, -0.5053934, -0.07007313, 0
130, 755623478, 0.35587555, 0.64786315, -0.36581472, 0.5655137, 0.43228322, -0.3340258, -0.022335052, 0
131, 755640145, 0.3567222, 0.6486813, -0.3641458, 0.56511956, 0.10381372, -0.1372678, 0.10897732, 0
132, 755656812, 0.35763547, 0.6497473, -0.36250132, 0.56437427, 0.50892884, 0.120502986, -0.02763176, 0
133, 755673479, 0.3585604, 0.65107125, -0.36103928, 0.5631975, 0.7638398, -0.09801356, -0.06582737, 0
134, 755690146, 0.35975274, 0.6527428, -0.36002553, 0.5611475, 1.0083503, -0.43269202, -0.04548645, 0
135, 755706813, 0.36058697, 0.6550505, -0.35902697, 0.5585569, 1.0112305, -0.73653865, -0.16026878, 0
136, 755723480, 0.36169964, 0.65762293, -0.35835138, 0.55523854, 0.9040462, -0.19205888, 0.26286793, 0
137, 755740147, 0.3644756, 0.6596483, -0.3593321, 0.5503653, 0.9583449, 0.02905445, -0.045135498, 0
138, 755756814, 0.3680457, 0.6614113, -0.3609985, 0.5447547, 0.76126724, -0.1674197, -0.03379059, 0
139, 755773481, 0.37209913, 0.6629181, -0.3622209, 0.539331, -0.23880146, -0.3672604, -0.295372, 0
140, 755790148, 0.3760904, 0.6647922, -0.36231577, 0.5341673, 0.16228852, -0.19726919, -0.621541, 0
141, 755806815, 0.3788625, 0.66683674, -0.36092693, 0.5305882, 0.028737508, -0.48525444, -0.8791952, 0
142, 755823482, 0.38106966, 0.66865045, -0.35796854, 0.528726, -0.7332301, -0.513234, -1.2406197, 0
143, 755840149, 0.38268456, 0.6710103, -0.3538809, 0.52731967, -0.039203838, 0.11090087, -0.8214989, 0
144, 755856816, 0.38350776, 0.67340314, -0.35019174, 0.5261329, -0.21430534, -0.06849487, 0.2817297, 0
145, 755873483, 0.38543752, 0.6749687, -0.34837496, 0.52391815, -1.4627472, -1.2937428, -0.18436813, 0
146, 755890150, 0.38851106, 0.67620605, -0.34753683, 0.52059835, -1.1162804, -1.9604223, 0.0136470795, 0
147, 755906817, 0.3924013, 0.67711234, -0.34724626, 0.516682, 0.4387194, -1.6324826, 0.51528454, 0
148, 755923484, 0.39576906, 0.6780332, -0.34685877, 0.5131541, 0.77105063, -0.9304914, 0.2712698, 0
149, 755940151, 0.39761743, 0.6798497, -0.34575188, 0.51005936, 0.58349925, -0.5738349, 0.051918983, 0
150, 755956818, 0.39869964, 0.6820175, -0.3440038, 0.5074961, 0.36036077, -0.42545265, -0.15862083, 0
151, 755973485, 0.39915377, 0.6844216, -0.34206384, 0.50520885, 0.4449316, -0.41557318, 0.046108246, 0
152, 755990152, 0.3991363, 0.6868384, -0.340022, 0.50331724, -0.07377738, -0.4667612, 0.0036354065, 0
153, 756006819, 0.3999959, 0.6887655, -0.33890426, 0.5007487, -0.48994052, -0.4443348, 0.34308434, 0
154, 756023486, 0.40162742, 0.69001865, -0.33869112, 0.49785355, -0.93223935, -0.06207871, 0.67366314, 0
155, 756040153, 0.40457848, 0.6904593, -0.33991536, 0.4940037, -0.5027138, 0.14843316, 0.3927822, 0
156, 756056820, 0.40756285, 0.69060284, -0.34167162, 0.49012345, -0.29000682, 0.15063007, 0.20709419, 0
157, 756073487, 0.41028044, 0.69082624, -0.34335262, 0.4863517, -0.26515734, 0.022051342, 0.27576447, 0
158, 756090154, 0.41317242, 0.69079393, -0.34520566, 0.48262337, -0.09727574, -0.37305027, 0.1458664, 0
159, 756106821, 0.41511357, 0.69094676, -0.346667, 0.47968253, -0.71734226, -0.262731, 0.26647472, 0
160, 756123488, 0.41679654, 0.6910651, -0.3479022, 0.47715202, -1.0017352, 0.27278414, 0.28157234, 0
161, 756140155, 0.41873085, 0.6907036, -0.3497773, 0.4746041, -0.48691437, 0.09221742, 0.44935703, 0
162, 756156822, 0.42043126, 0.68989044, -0.3521091, 0.47255486, -0.48531523, -0.15560459, 0.751029, 0
163, 756173489, 0.4219881, 0.68878484, -0.35440958, 0.4710579, -0.6194124, -0.18612058, 0.68922806, 0
164, 756190156, 0.42347723, 0.68727094, -0.35676205, 0.47015592, -0.57341367, 0.17029922, 0.48906517, 0
165, 756206823, 0.4243474, 0.6857837, -0.35880148, 0.46999112, -0.5818442, 0.7802739, 0.6614151, 0
166, 756223490, 0.42511162, 0.68413365, -0.36083373, 0.47014937, -0.49683475, 0.7682464, 0.76674366, 0
167, 756240157, 0.42582676, 0.6823263, -0.36285162, 0.4705753, -0.15598746, 0.6441851, 0.5467682, 0
168, 756256824, 0.426454, 0.680383, -0.36489922, 0.47123724, 0.28271472, -0.031940226, 0.40018845, 0
169, 756273491, 0.42789048, 0.67775047, -0.36739802, 0.47178674, 0.8077946, -0.69701713, -0.18166065, 0
170, 756290158, 0.42788607, 0.67592853, -0.3682389, 0.47374508, 0.25505722, -0.19558635, -0.1435709, 0
171, 756306825, 0.4279532, 0.6741203, -0.36892283, 0.47572467, 0.025053231, 0.15217835, -0.14404011, 0
172, 756323492, 0.4282438, 0.6721335, -0.370183, 0.47729322, -0.22951986, 0.16784705, 0.29979706, 0
173, 756340159, 0.4289533, 0.6698946, -0.37195426, 0.47842488, -0.058514796, -0.24254285, 0.49380875, 0
174, 756356826, 0.42986068, 0.6674288, -0.3738715, 0.4795607, 0.085879266, -0.3766779, 0.34269524, 0
175, 756373493, 0.4307242, 0.6649024, -0.37581143, 0.48077792, 0.11707709, -0.43217927, -0.019489288, 0
176, 756390160, 0.4318924, 0.6622012, -0.37787637, 0.4818381, 0.49864107, -0.45543423, -0.17470837, 0
177, 756406827, 0.4329259, 0.659655, -0.37957218, 0.4830689, 0.7925108, -0.42901188, -0.15742683, 0
178, 756423494, 0.43326843, 0.65749794, -0.38067383, 0.48483253, 0.7601246, -0.18101308, -1.6975403E-4, 0
179, 756440161, 0.43343434, 0.6554728, -0.38174418, 0.48658153, 0.42591512, -0.15140991, 0.0912447, 0
180, 756456828, 0.43388656, 0.6534408, -0.38288835, 0.48801062, 0.2989021, -0.18857855, 0.060167313, 0
181, 756473495, 0.43379825, 0.65189, -0.38353464, 0.48965293, 0.054876678, 0.029137373, 0.31000805, 0
182, 756490162, 0.4336308, 0.65034443, -0.3843446, 0.49121878, -0.012828526, 0.09024112, 0.4429245, 0
183, 756506829, 0.4340126, 0.64834356, -0.38569725, 0.49246445, 0.10714943, -0.20490304, 0.31090355, 0
184, 756523496, 0.43363506, 0.6466182, -0.38667244, 0.49429753, -0.39356688, 9.5976464E-4, 0.36811256, 0
185, 756540163, 0.43286303, 0.6452034, -0.38727114, 0.49635014, -0.7699836, 0.45902386, 0.09355736, 0
186, 756556830, 0.43265662, 0.64404744, -0.3873724, 0.49794963, -0.38350946, 0.5965829, -0.36311626, 0
187, 756573497, 0.43281806, 0.64301616, -0.38696596, 0.49945608, 0.52206606, 0.36716473, -0.39008713, 0
188, 756590164, 0.4318955, 0.64287645, -0.38522044, 0.5017782, 0.18526441, 0.19051015, -0.38276482, 0
189, 756606831, 0.4309552, 0.6428464, -0.3834558, 0.503972, -0.20134953, -0.09124693, 0.12454319, 0
190, 756623498, 0.43112653, 0.64215463, -0.38251618, 0.5054193, -0.35412353, -0.57092696, 0.100354195, 0
191, 756640165, 0.43177453, 0.6412375, -0.38194913, 0.50645834, -0.21179451, -0.7380648, -0.12761974, 0
192, 756656832, 0.4322017, 0.64044774, -0.38140476, 0.5075026, 0.032750905, -0.81255096, -0.3834324, 0
193, 756673499, 0.43221167, 0.639953, -0.380785, 0.50858253, 0.39714152, -0.6802872, -0.1582632, 0
194, 756690166, 0.43164936, 0.6401027, -0.37962055, 0.50974077, 0.956349, -0.66150606, -0.14624596, 0
195, 756706833, 0.43054894, 0.6405618, -0.3782944, 0.5110789, 1.1182806, -0.6512041, -0.104953766, 0
196, 756723500, 0.42934862, 0.6408429, -0.37732843, 0.51244855, 1.004415, -0.76382536, 0.13947773, 0
197, 756740167, 0.42847157, 0.6407986, -0.37665653, 0.5137306, 0.7632677, -0.7466844, 0.18407154, 0
198, 756756834, 0.42778856, 0.64061296, -0.37615767, 0.51489574, 0.22813341, -0.6446545, 0.09068012, 0
199, 756773501, 0.4275786, 0.6402072, -0.375979, 0.51570463, -0.25214967, -0.3489234, 0.1570406, 0
200, 756790168, 0.42797247, 0.6396, -0.37611353, 0.51603293, -0.03400325, -0.19992407, 0.030563354, 0
201, 756806835, 0.4286688, 0.63876516, -0.37662134, 0.51611865, 0.46354508, -0.266005, 0.025639534, 0
202, 756823502, 0.42914134, 0.6381027, -0.37685752, 0.5163729, 0.4486074, -0.40578374, 0.026727676, 0
203, 756840169, 0.42964616, 0.6374342, -0.37701172, 0.5166663, 0.38209832, -0.4289323, -0.16002846, 0
204, 756856836, 0.4298347, 0.63702434, -0.37693396, 0.5170716, 0.034519453, -0.3312301, -0.21402264, 0
205, 756873503, 0.42986295, 0.6367357, -0.37700444, 0.51735204, -0.33823535, -0.2602064, 0.20178223, 0
206, 756890170, 0.43036944, 0.6361385, -0.37754443, 0.51727206, -0.18681727, -0.20475687, 0.28138065, 0
207, 756906837, 0.43077403, 0.635697, -0.37791684, 0.51720613, 0.13045122, -0.12322493, -0.04948044, 0
208, 756923504, 0.43080884, 0.6354872, -0.37807554, 0.5173188, 0.21474744, -0.17065772, -0.15174103, 0
209, 756940171, 0.43046263, 0.63541955, -0.37810284, 0.5176701, 0.008869106, -0.25806358, 0.014037132, 0
210, 756956838, 0.43022284, 0.63527596, -0.3782317, 0.5179514, -0.1278075, -0.24790962, 0.07255077, 0
211, 756973505, 0.43035233, 0.6349893, -0.37833005, 0.5181234, 0.016511237, -0.109680936, -0.096144676, 0
212, 756990172, 0.4305786, 0.6347039, -0.37818938, 0.51838773, 0.32079786, -0.009375027, -0.3007021, 0
213, 757006839, 0.43041763, 0.63468754, -0.3776474, 0.5189364, 0.30048165, -0.009000196, -0.029711723, 0
214, 757023506, 0.43005195, 0.6348572, -0.37688035, 0.5195893, 0.14262094, 0.0060377554, 0.13222313, 0
215, 757040173, 0.4298289, 0.63503987, -0.37609836, 0.52011704, 0.12378047, -0.018332534, 0.0159626, 0
216, 757056840, 0.42983633, 0.6350833, -0.37542814, 0.5205419, 0.19036844, -0.17984925, -0.09892368, 0
217, 757073507, 0.42988414, 0.6350546, -0.37476638, 0.5210142, 0.14362216, -0.40403408, -0.080391884, 0
218, 757090174, 0.42989028, 0.63505876, -0.37394407, 0.5215943, 0.052782472, -0.45950487, -0.12343025, 0
219, 757106841, 0.42966327, 0.63521343, -0.37298313, 0.5222806, -0.17017104, -0.3888028, -0.046682358, 0
220, 757123508, 0.42954993, 0.6353056, -0.37214947, 0.52285635, -0.3192431, -0.2810226, 0.13290691, 0
221, 757140175, 0.4295075, 0.6354072, -0.37127727, 0.5233873, -0.062429402, -0.042347882, 0.0068540573, 0
222, 757156842, 0.42927107, 0.63556904, -0.37044185, 0.52397674, 0.2702702, 0.057099737, -0.003586769, 0
223, 757173509, 0.42864683, 0.635952, -0.36959183, 0.52462256, 0.256289, 0.03079718, 0.07398701, 0
224, 757190176, 0.42784277, 0.63637626, -0.36889744, 0.525253, -0.2712741, -0.16304511, 0.36723328, 0
225, 757206843, 0.42763558, 0.63635457, -0.36885533, 0.5254772, -0.55987513, -0.27492228, 0.46356487, 0
226, 757223510, 0.42796785, 0.63596255, -0.3691992, 0.52544004, -0.25940567, -0.19778997, 0.15585327, 0
227, 757240177, 0.4282477, 0.6355464, -0.3695278, 0.52548456, 0.16071789, -0.26243618, -0.23408318, 0
228, 757256844, 0.42834935, 0.6351817, -0.36963513, 0.52576715, 0.253651, -0.5103576, -0.28766537, 0
229, 757273511, 0.42838722, 0.63496226, -0.36917967, 0.52632105, 0.43139642, -0.6767369, -0.53099155, 0
230, 757290178, 0.42810705, 0.6350373, -0.3681606, 0.52717155, 0.562121, -0.707764, -0.59173393, 0
231, 757306845, 0.4275929, 0.6352898, -0.36684805, 0.52819866, 0.43996638, -0.6812514, -0.200037, 0
232, 757323512, 0.42725337, 0.6354203, -0.36562076, 0.52916646, 0.36521113, -0.51713747, 0.17521858, 0
233, 757340179, 0.42683938, 0.63559294, -0.36451843, 0.530053, 0.18778306, -0.1438612, 0.34348297, 0
234, 757356846, 0.42644724, 0.635752, -0.36369187, 0.53074515, 0.24389733, 0.15149306, 0.25174332, 0
235, 757373513, 0.4261647, 0.6357451, -0.36332843, 0.5312291, 0.13569707, 0.058570452, 0.17771626, 0
236, 757390180, 0.4260597, 0.63556045, -0.3632694, 0.5315745, -0.25624743, -0.28433174, 0.04940605, 0
237, 757406847, 0.42591864, 0.6354776, -0.3631453, 0.5318713, -0.85269356, -0.42843166, 0.17323208, 0
238, 757423514, 0.4263227, 0.6351689, -0.36305204, 0.53198, -0.56619275, -0.16748832, 0.062491417, 0
239, 757440181, 0.42699078, 0.6346008, -0.36308214, 0.53210175, 0.23617128, -0.08983678, -0.2687006, 0
240, 757456848, 0.42705712, 0.6342373, -0.36283827, 0.5326477, 0.18689449, -0.20460778, -0.048779488, 0
241, 757473515, 0.42677832, 0.6340185, -0.36229998, 0.5334976, -0.18407063, -0.22653373, 0.18388176, 0
242, 757490182, 0.42654938, 0.63370055, -0.36192524, 0.5343124, -0.2831955, -0.048987556, 0.2112627, 0
243, 757506849, 0.42626068, 0.6335324, -0.3616205, 0.5349478, -0.3809862, 0.12298733, 0.183568, 0
244, 757523516, 0.4261342, 0.63344496, -0.361345, 0.53533816, -0.13486783, 0.13077252, -0.072439194, 0
245, 757540183, 0.42605764, 0.63330746, -0.3612192, 0.5356465, -0.02592929, -0.15902723, -0.0057554245, 0
246, 757556850, 0.4262262, 0.6329947, -0.36117938, 0.5359089, -0.061869726, -0.39422008, 0.08383942, 0
247, 757573517, 0.42653114, 0.6325305, -0.36123174, 0.5361791, -0.01372459, -0.45104423, 0.04364586, 0
248, 757590184, 0.42691892, 0.63196594, -0.36139786, 0.5364243, -0.023038821, -0.40483, 0.061416626, 0
249, 757606851, 0.42740545, 0.6313589, -0.36163664, 0.5365907, 0.04445114, -0.34566972, -0.014307022, 0
250, 757623518, 0.42770675, 0.63088804, -0.3618738, 0.53674465, -0.035261292, -0.36216295, 0.038090706, 0
251, 757640185, 0.4279196, 0.63054436, -0.36203274, 0.5368713, -0.006227406, -0.25941226, 0.064554214, 0
252, 757656852, 0.4278418, 0.63041216, -0.36208728, 0.537052, 0.07323033, -0.2451222, -0.00258255, 0
253, 757673519, 0.42762455, 0.6303494, -0.36218992, 0.5372296, 0.033139594, -0.22136253, 0.03601265, 0
254, 757690186, 0.42739087, 0.63030964, -0.3623198, 0.53737426, 0.049173966, -0.20114937, 0.037433624, 0
255, 757706853, 0.42714074, 0.6302962, -0.3625264, 0.5374496, -0.025144648, -0.20041512, 0.089756966, 0
256, 757723520, 0.42706737, 0.63020873, -0.3629297, 0.5373383, -0.10092281, -0.26333693, 0.088829994, 0
257, 757740187, 0.42723942, 0.62994844, -0.36350915, 0.5371151, -0.08735289, -0.29766047, 0.018719673, 0
258, 757756854, 0.42765847, 0.6294446, -0.3642468, 0.5368725, 0.027058702, -0.3238419, -0.021520615, 0
259, 757773521, 0.42811218, 0.62892187, -0.36490133, 0.536679, 0.056656398, -0.33046302, -0.05953884, 0
260, 757790188, 0.42840314, 0.62850463, -0.36545137, 0.5365615, -0.0024504843, -0.26520774, -0.005757332, 0
261, 757806855, 0.42865157, 0.6281259, -0.36607102, 0.536384, -0.008639446, -0.21900336, -0.023311615, 0
262, 757823522, 0.42898083, 0.62771314, -0.3668767, 0.53605336, 0.013314667, -0.19047663, 0.026492119, 0
263, 757840189, 0.4294063, 0.62724143, -0.36778337, 0.53564346, 0.11471065, -0.20890415, 0.06737423, 0
264, 757856856, 0.42982087, 0.62676156, -0.36868712, 0.53525144, 0.23439747, -0.23229635, -0.034280777, 0
265, 757873523, 0.43000025, 0.6264183, -0.36943308, 0.5349947, 0.14912505, -0.26831567, -0.062223434, 0
266, 757890190, 0.43004748, 0.6261822, -0.37004915, 0.53480715, 0.009115641, -0.3575454, -0.052157402, 0
267, 757906857, 0.430047, 0.62598604, -0.3705647, 0.5346801, 0.04257799, -0.35629866, -0.07208252, 0
268, 757923524, 0.42994523, 0.62579787, -0.37105212, 0.5346444, 0.15614827, -0.351589, -0.0957489, 0
269, 757940191, 0.42973235, 0.625622, -0.37155783, 0.53467005, 0.075121924, -0.3917648, 0.0056324005, 0
270, 757956858, 0.42960078, 0.6253817, -0.37213084, 0.53465843, 0.015888195, -0.34336126, 0.06286049, 0
271, 757973525, 0.42952424, 0.6251021, -0.37273854, 0.5346237, 0.11322239, -0.26908076, 0.037794113, 0
272, 757990192, 0.42949277, 0.6247737, -0.3734053, 0.5345675, 0.2091071, -0.23670827, 0.01686573, 0
273, 758006859, 0.4294554, 0.62439185, -0.3740653, 0.53458226, 0.31326067, -0.2008901, -0.019742966, 0
274, 758023526, 0.42918426, 0.62409246, -0.37466547, 0.5347292, 0.100539036, -0.24303569, 0.0029010773, 0
275, 758040193, 0.42875051, 0.62393206, -0.37518921, 0.53489727, -0.18435495, -0.08847649, 0.14713955, 0
276, 758056860, 0.42870042, 0.6236614, -0.37586525, 0.53477865, -0.07354761, -0.0297232, 0.025551796, 0
277, 758073527, 0.42883226, 0.62332845, -0.37668934, 0.53448087, -0.019950766, -0.08031111, 0.030198097, 0
278, 758090194, 0.4290136, 0.6230344, -0.3774452, 0.5341447, -0.013017395, -0.094826266, 0.0313406, 0
279, 758106861, 0.42919472, 0.6227599, -0.37816232, 0.53381205, 0.03354136, -0.1469848, 0.02396679, 0
280, 758123528, 0.42952308, 0.6224012, -0.37894508, 0.533411, 0.080626264, -0.21936902, 0.06969547, 0
281, 758140195, 0.43003237, 0.6219759, -0.3797501, 0.53292406, 0.075730436, -0.2509085, 0.025382042, 0
282, 758156862, 0.4306038, 0.6215151, -0.3805622, 0.53242093, 0.04853472, -0.33057433, -0.018982887, 0
283, 758173529, 0.4313242, 0.62093085, -0.3814513, 0.5318827, -0.039073978, -0.41974413, -0.032917976, 0
284, 758190196, 0.43219686, 0.620208, -0.38240865, 0.53133005, -0.085440844, -0.4580956, -0.045557976, 0
285, 758206863, 0.43300182, 0.6194758, -0.3833372, 0.53085965, -0.11614963, -0.3436458, -0.029333115, 0
286, 758223530, 0.43359366, 0.61884123, -0.38413745, 0.5305381, -0.04902209, -0.09987855, 0.062267303, 0
287, 758240197, 0.43388605, 0.61842287, -0.38472936, 0.53035784, 0.1387584, 0.12922558, 0.08278465, 0
288, 758256864, 0.4337604, 0.6183477, -0.38504776, 0.5303172, 0.23783521, 0.32835975, 0.0935936, 0
289, 758273531, 0.4333366, 0.61855006, -0.38514507, 0.5303571, 0.2101347, 0.35077342, 0.10454273, 0
290, 758290198, 0.43283644, 0.6188723, -0.38513803, 0.53039503, 0.07285684, 0.28225505, 0.09369373, 0
291, 758306865, 0.43251663, 0.6191334, -0.38510063, 0.5303779, -0.09326223, 0.14195532, 0.09432602, 0
292, 758323532, 0.43257806, 0.6191649, -0.38515285, 0.5302531, -0.13848181, 0.028778858, 0.096390724, 0
293, 758340199, 0.43293816, 0.6190001, -0.3852314, 0.53009474, -0.07878742, 0.005580895, 0.059940338, 0
294, 758356866, 0.4334426, 0.6187204, -0.3852988, 0.5299599, -0.056235526, -0.05094352, 0.078222275, 0
295, 758373533, 0.43400273, 0.6183967, -0.3853387, 0.52985036, -0.031711236, -0.120859936, 0.035373688, 0
296, 758390200, 0.43453366, 0.61808175, -0.38537368, 0.52975726, -0.030628763, -0.18570931, 0.019145966, 0
297, 758406867, 0.43490812, 0.6178563, -0.3853402, 0.529737, -0.055059735, -0.2157327, -0.0110759735, 0
298, 758423534, 0.43511668, 0.61772317, -0.38525152, 0.5297858, -0.01920088, -0.25319323, -0.028168678, 0
299, 758440201, 0.43510973, 0.6177231, -0.3850656, 0.52992684, 0.015684351, -0.25458482, -0.0055618286, 0
300, 758456868, 0.43495998, 0.61778694, -0.38485187, 0.53013027, 0.03661768, -0.21110016, 0.027095795, 0
301, 758473535, 0.43470502, 0.6179269, -0.3845623, 0.5303863, 0.010076076, -0.1561741, 0.035072327, 0
302, 758490202, 0.43448335, 0.61806834, -0.38425982, 0.5306227, -0.035266098, -0.12063106, 0.049938202, 0
303, 758506869, 0.43440115, 0.6181121, -0.38407707, 0.5307711, -0.049173407, -0.16174649, 0.03248501, 0
304, 758523536, 0.43440917, 0.6180773, -0.38397372, 0.53087986, -0.07929614, -0.18920216, 0.038837433, 0
305, 758540203, 0.43455952, 0.61793756, -0.38392353, 0.5309558, -0.068629876, -0.18727592, 0.028710365, 0
306, 758556870, 0.43469903, 0.61778647, -0.38386264, 0.53106135, 0.0074589625, -0.16255203, 0.06956291, 0
307, 758573537, 0.43469572, 0.6177047, -0.38373926, 0.53124833, 2.2351296E-6, -0.10112911, 0.07258415, 0
308, 758590204, 0.43454245, 0.6177108, -0.38359514, 0.5314708, -0.089086, -0.0565005, 0.015508652, 0
309, 758606871, 0.4343456, 0.61781883, -0.38339958, 0.53164697, -0.15614223, -0.072389364, -0.06546879, 0
310, 758623538, 0.43421483, 0.6179322, -0.38326403, 0.5317199, -0.15441449, -0.1787431, -0.027573586, 0
311, 758640205, 0.43407235, 0.61802244, -0.38315547, 0.5318096, -0.09121307, -0.22805607, 4.5967102E-4, 0
312, 758656872, 0.4340308, 0.6180093, -0.38306263, 0.53192556, -0.054977816, -0.20646226, 0.06306267, 0
313, 758673539, 0.43401074, 0.6179575, -0.3829643, 0.53207314, 0.036091756, -0.23027802, 0.07735443, 0
314, 758690206, 0.43387336, 0.6179443, -0.3828484, 0.53228384, 0.07220072, -0.15425478, 0.06730747, 0
315, 758706873, 0.43358204, 0.6180595, -0.38265467, 0.53252685, -0.0044356147, -0.15488039, 0.0447731, 0
316, 758723540, 0.43317384, 0.6182596, -0.3824197, 0.53279525, -0.09082997, -0.0945623, 0.06148815, 0
317, 758740207, 0.43290257, 0.61838025, -0.38231656, 0.5329496, -0.11994119, -0.12536238, 0.033311844, 0
318, 758756874, 0.4327644, 0.6183915, -0.38229495, 0.5330643, -0.051310528, -0.12280897, 0.0014953613, 0
319, 758773541, 0.43269455, 0.6183377, -0.38224795, 0.53321725, 0.06107011, -0.1403335, 5.750656E-4, 0
320, 758790208, 0.43259382, 0.6182981, -0.3820731, 0.53347003, 0.10354037, -0.17962864, -0.022835732, 0
321, 758806875, 0.43246803, 0.6182722, -0.3818673, 0.5337494, 0.06068008, -0.19979465, 0.025410652, 0
322, 758823542, 0.43242013, 0.61820316, -0.38169548, 0.5339909, 0.0385704, -0.21238714, 0.046175003, 0
323, 758840209, 0.43240792, 0.61813885, -0.3815984, 0.53414446, 0.0016390205, -0.16469015, 0.06469631, 0
324, 758856876, 0.43248957, 0.6180325, -0.38157216, 0.5342203, 0.089034595, -0.057284135, 0.046726227, 0
325, 758873543, 0.4325131, 0.6179744, -0.38153738, 0.5342933, 0.15073133, -0.100408725, 0.02118969, 0
326, 758890210, 0.4323868, 0.6180546, -0.38135317, 0.53443426, 0.10288491, -0.16787343, 6.1798096E-4, 0
327, 758906877, 0.43221557, 0.61818665, -0.38112825, 0.5345806, -0.057470657, -0.22660168, 0.01412487, 0
328, 758923544, 0.43214518, 0.61825615, -0.38100994, 0.5346414, -0.11503206, -0.25489417, 0.01023674, 0
329, 758940211, 0.43229252, 0.6181552, -0.3811168, 0.53456295, -0.08904722, -0.2288026, 0.058363914, 0
330, 758956878, 0.43250486, 0.6179636, -0.38131437, 0.53447187, 0.007286746, -0.2236408, 0.047810555, 0
331, 758973545, 0.43264693, 0.61781436, -0.38149744, 0.5343986, 0.043268308, -0.18107454, -3.1757355E-4, 0
332, 758990212, 0.43267673, 0.6177615, -0.381619, 0.5343489, -0.044761598, -0.17668967, 0.0047426224, 0
333, 759006879, 0.43268487, 0.6177408, -0.3817429, 0.5342776, -0.041126385, -0.17819704, -0.0041656494, 0
334, 759023546, 0.4326726, 0.61774844, -0.38184318, 0.5342071, 0.019171154, -0.14888065, -0.026677132, 0
335, 759040213, 0.43252963, 0.6178775, -0.3818356, 0.534179, 0.047050036, -0.17323752, -0.022828102, 0
336, 759056880, 0.43249205, 0.6179622, -0.38194364, 0.5340342, 0.029977446, -0.18386891, 0.018408775, 0
337, 759073547, 0.43250987, 0.6180165, -0.38205725, 0.53387564, 0.09693667, -0.18146905, 0.04749775, 0
338, 759090214, 0.4325009, 0.61810464, -0.3821155, 0.53373927, 0.14093274, -0.15158805, 0.09268665, 0
339, 759106881, 0.43243834, 0.6182669, -0.3821551, 0.5335737, 0.09909994, -0.12821686, 0.05457878, 0
340, 759123548, 0.43242052, 0.6184427, -0.38227814, 0.53329575, -0.038397625, -0.14185943, 0.0347147, 0
341, 759140215, 0.43244246, 0.61859673, -0.3824198, 0.532998, -0.044842288, -0.16926591, 0.018486023, 0
342, 759156882, 0.43246317, 0.6187471, -0.38253093, 0.5327266, -0.01582304, -0.17753634, 0.0029287338, 0
343, 759173549, 0.4323225, 0.6189835, -0.38251507, 0.5325774, -0.044055074, -0.19074863, -0.0068178177, 0
344, 759190216, 0.43213934, 0.6192409, -0.38253307, 0.53241414, -0.1625669, -0.17594224, -0.0020799637, 0
345, 759206883, 0.43205166, 0.6194158, -0.38269976, 0.5321622, -0.18408705, -0.14512272, 0.08450031, 0
346, 759223550, 0.43209073, 0.61950237, -0.38299677, 0.5318157, -0.11944398, -0.15051787, 0.06516552, 0
347, 759240217, 0.43212196, 0.6195742, -0.38328275, 0.5315006, -0.050847635, -0.18056047, 0.040071487, 0
348, 759256884, 0.43199575, 0.6197288, -0.3834063, 0.5313339, -0.035270233, -0.18330386, 0.014209747, 0
349, 759273551, 0.43195584, 0.6197858, -0.38365135, 0.53112274, -0.10847262, -0.19478685, 0.021217346, 0
350, 759290218, 0.43190405, 0.61983865, -0.38379058, 0.5310024, -0.101256065, -0.2355214, 0.01243782, 0
351, 759306885, 0.43197733, 0.6197825, -0.38395807, 0.5308875, -0.09175274, -0.2799426, 0.034136772, 0
352, 759323552, 0.4320281, 0.61974305, -0.38391063, 0.5309266, -0.05273341, -0.23042263, -0.021740913, 0
353, 759340219, 0.43208262, 0.619671, -0.3837862, 0.53105634, 0.043342292, -0.07526016, -0.016551971, 0
354, 759356886, 0.4319811, 0.61969066, -0.38353026, 0.53130066, 0.14566228, 0.057343144, 0.030602455, 0
355, 759373553, 0.43172303, 0.6198117, -0.38314763, 0.5316451, 0.11454737, 0.08690921, 0.10687637, 0
356, 759390220, 0.43159088, 0.6198678, -0.38289124, 0.531872, 0.02606027, 0.056392767, 0.14245987, 0
357, 759406887, 0.43153715, 0.6199056, -0.3827291, 0.5319879, -0.17937641, 0.030079257, 0.06067276, 0
358, 759423554, 0.43169773, 0.6198182, -0.3828023, 0.53190696, -0.24909468, -2.677685E-4, 0.027493477, 0
359, 759440221, 0.43195596, 0.6196986, -0.38294202, 0.53173614, -0.18571289, -0.049370658, 0.014241219, 0
360, 759456888, 0.43227667, 0.619517, -0.38317144, 0.5315218, -0.06310274, -0.10117761, 0.05440998, 0
361, 759473555, 0.4324165, 0.6194287, -0.38326913, 0.53144044, 0.052783143, -0.16686806, 0.030377388, 0
362, 759490222, 0.4324353, 0.61941165, -0.38335502, 0.531383, 0.04747449, -0.16951022, 0.052301407, 0
363, 759506889, 0.43240222, 0.61944556, -0.38342893, 0.5313171, 0.045428675, -0.15745951, 0.038417816, 0
364, 759523556, 0.43223476, 0.61958945, -0.3834459, 0.5312734, 0.03848122, -0.11978059, 0.010139465, 0
365, 759540223, 0.43197462, 0.6198191, -0.38335884, 0.5312798, -0.006765402, -0.09746819, 0.01813984, 0
366, 759556890, 0.43172505, 0.6200479, -0.38325408, 0.53129125, -0.03416988, -0.046385642, 0.03626728, 0
367, 759573557, 0.43146583, 0.6202996, -0.38307804, 0.53133506, -0.044277024, -0.04479222, -9.98497E-4, 0
368, 759590224, 0.4313041, 0.62048215, -0.38296732, 0.5313331, -0.02799064, -0.046188056, -6.971359E-4, 0
369, 759606891, 0.4309912, 0.6207927, -0.38263914, 0.5314606, -0.04088242, -0.12872626, 0.06459427, 0
370, 759623558, 0.43100432, 0.6208727, -0.38259614, 0.5313875, -0.05121956, -0.129857, 0.06603241, 0
371, 759640225, 0.43109828, 0.6209076, -0.38259262, 0.53127295, -0.023060838, -0.18661164, 0.0158844, 0
372, 759656892, 0.43121004, 0.6209596, -0.38256606, 0.5311407, -6.580221E-4, -0.1670918, -0.037527084, 0
373, 759673559, 0.43123826, 0.62111145, -0.38243157, 0.531037, 0.037094656, -0.20569628, -0.09370232, 0
374, 759690226, 0.43110278, 0.62136984, -0.38220748, 0.5310061, 0.022200648, -0.18267713, 0.006790161, 0
375, 759706893, 0.43086877, 0.6217111, -0.3819094, 0.5310111, -0.012940618, -0.15529077, 0.046437263, 0
376, 759723560, 0.43045577, 0.6221887, -0.38144806, 0.53111815, -0.060874872, -0.14105344, 0.036951065, 0
377, 759740227, 0.43026432, 0.62249315, -0.3813146, 0.5310123, -0.10638602, -0.20378146, 0.06289768, 0
378, 759756894, 0.43016484, 0.6227144, -0.38128337, 0.530856, -0.15528607, -0.22276688, 0.062233925, 0
379, 759773561, 0.43001038, 0.6229385, -0.38120452, 0.53077495, -0.1393268, -0.1980441, 0.07142639, 0
380, 759790228, 0.4299117, 0.6230768, -0.38125536, 0.530656, -0.13010007, -0.11981144, 0.06784439, 0
381, 759806895, 0.42984357, 0.6231569, -0.38143635, 0.53048694, -0.1526114, -0.08137101, 0.10337067, 0
382, 759823562, 0.42983636, 0.62313944, -0.38179636, 0.5302543, -0.15422863, -0.05487109, 0.12614441, 0
383, 759840229, 0.42986795, 0.62302524, -0.38232112, 0.5299847, -0.22296748, -0.06821839, 0.17577934, 0
384, 759856896, 0.42977947, 0.6229183, -0.3828685, 0.52978694, -0.3866374, -0.040615432, 0.1917324, 0
385, 759873563, 0.4297536, 0.62269896, -0.38357657, 0.52955383, -0.51253307, -0.008194879, 0.17551708, 0
386, 759890230, 0.4302613, 0.62201506, -0.3849606, 0.5289402, -0.51012886, 0.033722293, 0.1439209, 0
387, 759906897, 0.43074596, 0.6212277, -0.38650888, 0.5283417, -0.4569813, 0.035102487, 0.12026119, 0
388, 759923564, 0.4311778, 0.62033224, -0.38838446, 0.527666, -0.39575326, 0.16168994, 0.013498306, 0
389, 759940231, 0.43152303, 0.61932266, -0.39079246, 0.5267909, -0.21346828, 0.319765, -0.20333004, 0
390, 759956898, 0.4318832, 0.6181761, -0.39387417, 0.52554595, -0.22358549, 0.19494934, -0.17247391, 0
391, 759973565, 0.43225107, 0.6171138, -0.3970114, 0.52412933, -0.31964308, 0.07603173, 0.07158661, 0
392, 759990232, 0.43316564, 0.6157785, -0.40058422, 0.522223, -0.12217487, -0.001683276, 0.12533855, 0
393, 760006899, 0.43400088, 0.61463183, -0.40400857, 0.5202386, 0.11561856, -0.0011401395, -0.14907074, 0
394, 760023566, 0.43446127, 0.6138921, -0.4069642, 0.51842093, 0.17634043, -0.003262395, -0.22306347, 0
395, 760040233, 0.43470123, 0.61347276, -0.4093889, 0.51680464, 0.08836886, -0.025083965, -0.2054081, 0
396, 760056900, 0.4348494, 0.6132725, -0.41126594, 0.5154254, 0.032435305, -0.06255546, -0.16543674, 0
397, 760073567, 0.4353157, 0.6129692, -0.41305497, 0.51396, -0.00690398, -0.1304549, -0.09614372, 0
398, 760090234, 0.43606323, 0.6125837, -0.41476846, 0.51240355, -0.039889798, -0.13810575, -0.09659672, 0
399, 760106901, 0.43681926, 0.6122393, -0.4163236, 0.51090765, 1.10974186E-4, -0.24440986, 0.007232666, 0
400, 760123568, 0.43761888, 0.6119139, -0.41763037, 0.50954485, 0.07059143, -0.2873983, 0.16320515, 0
401, 760140235, 0.43815383, 0.61188877, -0.41835085, 0.5085235, 0.04523433, -0.27089837, 0.16305256, 0
402, 760156902, 0.4380213, 0.61236775, -0.41854802, 0.5078982, -0.12854297, -0.04480295, 0.22156048, 0
403, 760173569, 0.4372409, 0.6133319, -0.41858426, 0.5073772, -0.66593385, 0.09044653, 0.3014393, 0
404, 760190236, 0.43657812, 0.6145975, -0.4188969, 0.5061569, -1.1680267, 0.33369657, -0.008516312, 0
405, 760206903, 0.43607512, 0.61638504, -0.419439, 0.50396335, -1.5188707, 0.47142974, -0.54089546, 0
406, 760223570, 0.43575796, 0.61855614, -0.42030752, 0.50084424, -1.8684007, 0.40909016, -0.5996933, 0
407, 760240237, 0.4360181, 0.62103623, -0.42139506, 0.49661714, -2.100491, 0.27265295, -0.5541239, 0
408, 760256904, 0.43672293, 0.6240941, -0.4224554, 0.49123427, -1.921856, 0.42650473, -0.56911755, 0
409, 760273571, 0.43737572, 0.62791127, -0.42319384, 0.48511553, -1.399817, 0.51760393, -0.61352634, 0
410, 760290238, 0.4381128, 0.6324964, -0.42364278, 0.47805077, -1.152975, 0.4451227, -0.64363, 0
411, 760306905, 0.43864125, 0.6378505, -0.42361256, 0.47041824, -0.7695654, 0.39058977, -0.70137215, 0
412, 760323572, 0.43887788, 0.6438958, -0.42304185, 0.46240693, -0.3320342, 0.020260556, -0.67376614, 0
413, 760340239, 0.4391193, 0.65022147, -0.4219579, 0.45424455, 0.3682729, -0.25851396, -0.55589485, 0
414, 760356906, 0.43982074, 0.6562361, -0.42049018, 0.44620624, 1.5671643, -0.8955746, -0.4899969, 0
415, 760373573, 0.44033697, 0.6619249, -0.4183656, 0.43923703, 2.8089616, -1.5758277, -0.612792, 0
416, 760390240, 0.44127938, 0.66587013, -0.4162626, 0.43429834, 5.699398, -2.847593, 0.4561348, 0
417, 760406907, 0.44160435, 0.66763175, -0.41423187, 0.4332038, 9.146515, -3.8193934, 2.3914804, 0
418, 760423574, 0.43741423, 0.6698806, -0.4107792, 0.437252, 5.837449, -2.0345845, 2.8081636, 0
419, 760440241, 0.4314475, 0.6741835, -0.4069277, 0.4401588, -3.2187152, 1.7135967, 1.4650621, 0
420, 760456908, 0.43151566, 0.67654717, -0.40554252, 0.43773672, -4.2289, 2.837177, -0.9868183, 0
421, 760473575, 0.43453896, 0.67698836, -0.40616658, 0.43346444, 0.17361246, 0.68736994, -2.3181462, 0
422, 760490242, 0.43450195, 0.67868793, -0.40454325, 0.4323606, 0.61504996, -1.6788417, 0.16651726, 0
423, 760506909, 0.4336919, 0.6809729, -0.4012189, 0.43267876, -1.1439226, -0.6568049, 0.75372696, 0
424, 760523576, 0.43495587, 0.6821741, -0.3987923, 0.4317602, -0.581922, 0.803671, 0.007121086, 0
425, 760540243, 0.43633166, 0.6834531, -0.3970328, 0.42996696, 0.4810762, 0.41086867, 0.029909134, 0
426, 760556910, 0.4368696, 0.6856193, -0.39431044, 0.42847478, 0.339966, -0.22758067, 0.6249914, 0
427, 760573577, 0.43684533, 0.6884724, -0.39030957, 0.42758688, -0.21687216, 0.17015997, 0.37116432, 0
428, 760590244, 0.43684077, 0.69146633, -0.38571185, 0.42693207, 0.026612123, 0.35534135, -0.13765144, 0
429, 760606911, 0.43644077, 0.69456273, -0.38113692, 0.42642343, 0.0424916, 0.034303874, -9.1457367E-4, 0
430, 760623578, 0.4352751, 0.6980129, -0.37628555, 0.42628977, -0.2623157, -0.11482553, 0.380064, 0
431, 760640245, 0.43438387, 0.7009972, -0.37183994, 0.42620274, -0.3987489, -0.26695314, 0.72565556, 0
432, 760656912, 0.43385974, 0.7032482, -0.36819598, 0.42619187, -0.3656769, -0.3589218, 0.8807049, 0
433, 760673579, 0.4332785, 0.7049448, -0.36535075, 0.42642865, -0.75133646, -0.10466397, 0.92218685, 0
434, 760690246, 0.43323454, 0.70589995, -0.36343965, 0.4265265, -0.69831306, 0.11152045, 0.7207403, 0
435, 760706913, 0.43330717, 0.7064284, -0.3621345, 0.42668805, -0.47176087, 0.010801934, 0.6429367, 0
436, 760723580, 0.43310836, 0.7067747, -0.3609405, 0.42732725, -0.0375352, 0.020571016, 0.52835846, 0
437, 760740247, 0.4325813, 0.7069466, -0.3597419, 0.42858574, 0.07331248, 0.076937184, 0.4867096, 0
438, 760756914, 0.43224117, 0.70658845, -0.3589182, 0.4302072, 0.3260977, -0.22161444, 0.3370371, 0
439, 760773581, 0.4311462, 0.70625293, -0.35791063, 0.43268922, -0.1521047, -0.25270888, 0.5741005, 0
440, 760790248, 0.43002537, 0.70561373, -0.35716674, 0.43545324, -0.68975115, -0.2797144, 0.66005516, 0
441, 760806915, 0.42792735, 0.7054907, -0.35604256, 0.43862838, -1.7832525, 0.6189031, 0.48095798, 0
442, 760823582, 0.42742947, 0.70450425, -0.356184, 0.44058025, -0.37304905, 0.2009804, -0.1153698, 0
443, 760840249, 0.4261562, 0.70352167, -0.35636047, 0.4432331, 0.15197875, -0.2949877, 0.42562675, 0
444, 760856916, 0.42267483, 0.70355254, -0.35519496, 0.4474332, -0.9389646, 0.28241777, 0.3398037, 0
445, 760873583, 0.4202893, 0.7030503, -0.35502505, 0.4505935, -0.4963055, 0.031990517, -0.15359306, 0
446, 760890250, 0.41805702, 0.70232034, -0.3552929, 0.4535874, 0.10515346, -0.30534327, 0.26675892, 0
447, 760906917, 0.4151666, 0.701775, -0.35500413, 0.4572973, 0.03895719, -0.27713796, 0.4075079, 0
448, 760923584, 0.4127064, 0.7007278, -0.35505843, 0.46107244, -0.14622329, -0.41457072, 0.18729782, 0
449, 760940251, 0.41034958, 0.6995881, -0.35526624, 0.46473178, -0.2503288, -0.1769161, 0.109716415, 0
450, 760956918, 0.4076739, 0.6985828, -0.3553132, 0.46854737, -0.41289884, -0.011949003, 0.34826946, 0
451, 760973585, 0.40531865, 0.6972782, -0.35586873, 0.47209913, -0.62235236, 0.030157933, 0.04341507, 0
452, 760990252, 0.40319043, 0.6957855, -0.35704717, 0.47522354, -0.71956533, -0.16701469, -0.1033802, 0
453, 761006919, 0.40144932, 0.69418275, -0.35859513, 0.47786862, -0.26214314, -0.1986771, -0.2737255, 0
454, 761023586, 0.40004605, 0.69250363, -0.3603336, 0.48016852, 0.6582507, -0.47064385, -0.2605276, 0
455, 761040253, 0.39817008, 0.6912429, -0.36158535, 0.48259726, 0.97116065, -0.47894424, -0.3157587, 0
456, 761056920, 0.39568904, 0.69062823, -0.36221233, 0.48504138, 0.9356117, -0.48788163, -0.14829826, 0
457, 761073587, 0.3934445, 0.69023126, -0.3627281, 0.48704275, 0.69986624, -0.48163152, -0.106616974, 0
458, 761090254, 0.39155468, 0.68989104, -0.36319447, 0.48869756, 0.7905953, -0.5531458, -0.1955986, 0
459, 761106921, 0.3893428, 0.68970644, -0.3633884, 0.49057734, 0.21525595, -0.5177995, 0.017266273, 0
460, 761123588, 0.38637757, 0.6898775, -0.3630805, 0.49290383, -0.76853096, -0.05933196, 0.16434002, 0
461, 761140255, 0.3842009, 0.68964267, -0.3636369, 0.4945212, -0.49007607, -0.036862202, 0.18453026, 0
462, 761156922, 0.38215554, 0.6889762, -0.36457703, 0.4963391, -0.38281378, -0.116816364, 0.27365017, 0
463, 761173589, 0.3797386, 0.68817526, -0.36553675, 0.4985943, -0.6656719, -0.17828846, 0.35333252, 0
464, 761190256, 0.377044, 0.687423, -0.36629423, 0.5011148, -0.71639055, 0.18554011, 0.15697193, 0
465, 761206923, 0.37491506, 0.6865451, -0.36777794, 0.5028261, 0.15233995, 0.048550144, 0.065525055, 0
466, 761223590, 0.3728002, 0.6854257, -0.36948237, 0.5046727, 0.14484958, -0.19057855, 0.316967, 0
467, 761240257, 0.37116942, 0.6841297, -0.37107834, 0.5064592, -0.06645621, -0.19718157, 0.38598728, 0
468, 761256924, 0.3698134, 0.6828824, -0.3726031, 0.5080125, 0.36530936, -0.19569074, -0.0069360733, 0
469, 761273591, 0.36825907, 0.68175995, -0.37412158, 0.50953096, 0.6019529, 0.095797874, -0.03712082, 0
470, 761290258, 0.36536774, 0.68146676, -0.37429595, 0.51187134, 0.71947783, 0.253134, -0.08937073, 0
471, 761306925, 0.36194625, 0.6819129, -0.37383255, 0.5140421, 0.9992694, -0.032549746, -0.24292469, 0
472, 761323592, 0.35825375, 0.6826448, -0.37303087, 0.5162349, 0.39611077, -0.5153516, 0.14009666, 0
473, 761340259, 0.35532707, 0.6829185, -0.37253234, 0.5182519, -0.8605502, -0.6038375, 0.26511574, 0
474, 761356926, 0.35410967, 0.68264896, -0.37299058, 0.5191098, -0.34919095, -0.24905132, -0.056246758, 0
475, 761373593, 0.3530288, 0.6822483, -0.37370777, 0.5198561, 0.006428344, 0.043231875, 0.0854702, 0
476, 761390260, 0.3515953, 0.6820348, -0.3739747, 0.5209149, 0.23416413, 0.30822527, 0.06545067, 0
477, 761406927, 0.34962744, 0.68216765, -0.37369263, 0.5222661, 0.36788702, 0.26446456, -0.030065536, 0
478, 761423594, 0.34724307, 0.6825157, -0.37309518, 0.5238269, 0.19939825, 0.026484273, 0.18197441, 0
479, 761440261, 0.34481546, 0.68286276, -0.37218857, 0.52562004, -0.13644125, -0.17105268, 0.3062477, 0
480, 761456928, 0.34248045, 0.68329155, -0.37124935, 0.52725106, 0.004031168, -0.029999685, 0.17338467, 0
481, 761473595, 0.3399417, 0.6837419, -0.37018535, 0.5290553, 0.16806978, 0.025615478, -0.0090351105, 0
482, 761490262, 0.33708152, 0.6843596, -0.36884573, 0.53101885, 0.21093789, 0.075389355, -0.14856434, 0
483, 761506929, 0.33429226, 0.68500704, -0.36747596, 0.5328937, 0.010591944, -0.050911333, -0.25854492, 0
484, 761523596, 0.3319807, 0.6856887, -0.3664885, 0.53414065, 0.065688334, -0.31999612, -0.19183826, 0
485, 761540263, 0.33019072, 0.6862807, -0.36586902, 0.534914, 0.036208093, -0.45729187, 0.13128853, 0
486, 761556930, 0.32879868, 0.68680114, -0.36553168, 0.5353338, 0.1580668, -0.2510692, 0.12864113, 0
487, 761573597, 0.32721204, 0.68747574, -0.3649917, 0.5358084, 0.15628026, -0.039300952, 0.16382504, 0
488, 761590264, 0.32524484, 0.68835205, -0.36395684, 0.5365844, 0.06372399, 0.0413005, 0.09972286, 0
489, 761606931, 0.32276502, 0.689482, -0.3625141, 0.5376067, 0.07362819, 0.0762472, -0.13027573, 0
490, 761623598, 0.31996036, 0.69080037, -0.3609993, 0.538609, -0.092259556, -0.15687995, 0.021137238, 0
491, 761640265, 0.31767705, 0.6918178, -0.35987893, 0.5394039, -0.42921853, -0.4296205, 0.23882389, 0
492, 761656932, 0.3158971, 0.69254637, -0.3592253, 0.5399498, -0.43494704, -0.30374584, 0.19658947, 0
493, 761673599, 0.31422013, 0.6930994, -0.35875082, 0.5405341, -0.33922103, -0.0040163044, 0.19926739, 0
494, 761690266, 0.31236953, 0.6936715, -0.35806018, 0.54133004, -0.040660247, 0.1166637, 0.19025421, 0
495, 761706933, 0.310191, 0.69427305, -0.35709938, 0.54244506, -0.016528448, -0.0041318606, -0.0027475357, 0
496, 761723600, 0.30802122, 0.6948499, -0.3560907, 0.5436046, -0.29929683, -0.23896173, -0.16836357, 0
497, 761740267, 0.3063067, 0.69534373, -0.3554618, 0.54435307, -0.3754776, -0.37504512, -0.17894745, 0
498, 761756934, 0.3050412, 0.6956948, -0.35524312, 0.5447578, -0.17410262, -0.33870393, 0.1574707, 0
499, 761773601, 0.30384773, 0.6959616, -0.3550412, 0.5452154, -0.023272952, -0.18872808, 0.23491096, 0
500, 761790268, 0.30248562, 0.696225, -0.3547237, 0.5458429, -0.1459885, -0.121273436, 0.14217949, 0
501, 761806935, 0.30117264, 0.69643307, -0.35436773, 0.5465341, -0.23114882, -0.17648762, 0.116532326, 0
502, 761823602, 0.30006874, 0.6965188, -0.35412514, 0.54718924, -0.233717, -0.2966824, 0.060858727, 0
503, 761840269, 0.29925308, 0.6964845, -0.3540791, 0.54770875, -0.25275874, -0.38737634, 0.102072716, 0
504, 761856936, 0.29877734, 0.69629556, -0.35434464, 0.5480371, -0.22221848, -0.19083424, 0.17343903, 0
505, 761873603, 0.29846615, 0.69605094, -0.35472253, 0.5482727, -0.10544626, 0.01349236, 0.22517776, 0
506, 761890270, 0.29806238, 0.6958505, -0.35498413, 0.5485775, -0.010435373, 0.074102364, 0.17303848, 0
507, 761906937, 0.29744688, 0.6957759, -0.35505337, 0.54896134, -0.013225708, 0.037136007, 0.0991478, 0
508, 761923604, 0.29664886, 0.6958528, -0.35490012, 0.54939437, 0.039456744, -0.06824856, 0.10576439, 0
