sep=,
DeviceTag:,Xsens DOT 4,,,,,,,,,,,,,,,,,
FirmwareVersion:,3.0.0,,,,,,,,,,,,,,,,,
AppVersion:,2023.6.1,,,,,,,,,,,,,,,,,
SyncStatus:,Un-synced,,,,,,,,,,,,,,,,,
OutputRate:,60Hz,,,,,,,,,,,,,,,,,
FilterProfile:,General,,,,,,,,,,,,,,,,,
Measurement Mode:,Sensor fusion Mode - Extended (Quaternion),,,,,,,,,,,,,,,,,
StartTime:,2024-03-15 15:49:47.563 +0530,,,,,,,,,,,,,,,,,
 2024,,,,,,,,,,,,,,,,,,,

PacketCounter,SampleTimeFine,Quat_W,Quat_X,Quat_Y,Quat_Z,FreeAcc_X,FreeAcc_Y,FreeAcc_Z,Status
1, 739730832, 0.4519634, 0.48712018, 0.60012007, -0.44530743, -0.06335944, 0.0055724015, 0.021128654, 0
2, 739747499, 0.4518303, 0.48691308, 0.6003943, -0.44529957, -0.04145942, -0.036107846, 0.0033369064, 0
3, 739764166, 0.451867, 0.48652086, 0.600518, -0.445524, -0.0077659576, -0.040361747, -0.033943176, 0
4, 739780833, 0.45213667, 0.4861243, 0.6005676, -0.44561663, 0.038384326, -0.018585997, -0.014810562, 0
5, 739797500, 0.45219544, 0.48640075, 0.6001858, -0.44576988, 0.016743133, -0.0141061265, -0.023114204, 0
6, 739814167, 0.45229176, 0.4865737, 0.5999726, -0.44577038, 0.006886658, -0.039866664, -0.05320072, 0
7, 739830834, 0.45248434, 0.4865059, 0.599959, -0.44566733, 0.04886865, -0.022478921, 3.452301E-4, 0
8, 739847501, 0.45274165, 0.48640403, 0.60001373, -0.44544333, 0.0011282935, 0.0046783495, 0.04951477, 0
9, 739864168, 0.45284483, 0.48646095, 0.6000047, -0.44528857, -0.07448904, 0.0021743341, 0.034251213, 0
10, 739880835, 0.45281973, 0.48654634, 0.5999865, -0.44524515, -0.03622385, -0.015522975, -0.036548615, 0
11, 739897502, 0.4528429, 0.48651078, 0.60008466, -0.44512808, 0.006610843, 0.010770866, -0.022956848, 0
12, 739914169, 0.4528493, 0.48649633, 0.60017574, -0.44501472, 0.003976966, -0.02911815, -0.0083351135, 0
13, 739930836, 0.45290244, 0.48642206, 0.6003085, -0.4448627, -0.022935111, 0.04143416, 0.004746437, 0
14, 739947503, 0.45286572, 0.48641765, 0.60040355, -0.44477648, -0.046793107, 0.0013059862, -0.0240736, 0
15, 739964170, 0.4528441, 0.4863405, 0.6005629, -0.44466782, -0.01896731, 0.0011848422, -0.026021957, 0
16, 739980837, 0.452766, 0.4863344, 0.6006799, -0.444596, 0.018805932, -0.025690133, -0.01401329, 0
17, 739997504, 0.45274568, 0.48627365, 0.60080695, -0.44451165, -0.016624894, -0.021963054, 0.01023674, 0
18, 740014171, 0.45271054, 0.4862412, 0.6009132, -0.44443905, -0.031727888, -0.043211535, 0.004702568, 0
19, 740030838, 0.4526452, 0.48621807, 0.60100883, -0.4444016, -0.043798704, -0.045585245, 0.007833481, 0
20, 740047505, 0.45261455, 0.48618284, 0.60109526, -0.44435462, -0.0076293913, -0.0051597967, 0.0076589584, 0
21, 740064172, 0.4525634, 0.48618537, 0.6011753, -0.44429573, -0.023542173, -0.0013126916, -0.013978004, 0
22, 740080839, 0.4525324, 0.486119, 0.60131896, -0.4442053, -0.0043710195, 9.82116E-4, -0.018198013, 0
23, 740097506, 0.4524187, 0.48615572, 0.6014096, -0.4441584, 0.008086252, -0.048494264, 0.0034160614, 0
24, 740114173, 0.45232195, 0.48614374, 0.60153854, -0.4440953, 0.011670282, -0.053368412, 0.016132355, 0
25, 740130840, 0.4522728, 0.48608857, 0.6016615, -0.44403926, 0.003313356, -0.05690528, 0.0019569397, 0
26, 740147507, 0.45223114, 0.48602262, 0.60179573, -0.4439721, -0.05333153, -0.05645043, -0.019885063, 0
27, 740164174, 0.45217752, 0.48600516, 0.60188055, -0.44393054, -0.066507176, -0.02536358, 0.011915207, 0
28, 740180841, 0.4521418, 0.48597884, 0.6019491, -0.44390297, -0.041873142, -0.020733286, 0.0035171509, 0
29, 740197508, 0.45215356, 0.48590472, 0.60205644, -0.44382638, -0.0010873906, -0.034889925, -0.028355598, 0
30, 740214175, 0.45213416, 0.48585325, 0.60216457, -0.44375578, 0.0046743266, -0.030363565, -0.047016144, 0
31, 740230842, 0.45206952, 0.48582843, 0.6022597, -0.44371983, 0.009682357, -0.038249772, 0.009441376, 0
32, 740247509, 0.45204914, 0.4857504, 0.60237616, -0.44366783, -0.020006422, -0.022801898, 0.033766747, 0
33, 740264176, 0.45198658, 0.48572618, 0.6024693, -0.44363168, -0.062330835, -0.071720615, 0.02283287, 0
34, 740280843, 0.4519385, 0.48571193, 0.60253584, -0.4436057, -0.03464473, -0.082860276, -0.009202957, 0
35, 740297510, 0.45187485, 0.48571828, 0.60258627, -0.4435953, 0.029354403, -0.07855587, 0.0050172806, 0
36, 740314177, 0.45184538, 0.4856527, 0.6026934, -0.44355166, 0.029078588, -0.05171084, -0.013863564, 0
37, 740330844, 0.45182398, 0.48556, 0.6028263, -0.44349435, 0.011556067, -0.029605186, -0.015229225, 0
38, 740347511, 0.45176297, 0.48549506, 0.6029247, -0.44349357, -0.013726601, -0.050539855, -2.5367737E-4, 0
39, 740364178, 0.4516715, 0.48545676, 0.6030198, -0.44349948, -0.010221918, -0.05753447, 0.034653664, 0
40, 740380845, 0.45157734, 0.4854331, 0.60309255, -0.44352242, -0.031317294, -0.068377756, 0.018978119, 0
41, 740397512, 0.45153466, 0.4853685, 0.60320026, -0.44349018, -0.014037284, -0.121139325, 0.002875328, 0
42, 740414179, 0.45152393, 0.4853105, 0.603301, -0.4434276, -0.034225423, -0.06696247, -8.382797E-4, 0
43, 740430846, 0.4515262, 0.48524952, 0.6034091, -0.44334477, -0.0030160837, -0.081767745, -0.009665489, 0
44, 740447513, 0.4515196, 0.4851953, 0.60352117, -0.4432582, -0.018474463, -0.045732986, -0.01448822, 0
45, 740464180, 0.45148063, 0.48516414, 0.60360396, -0.44321945, 0.005256131, -0.054328177, 0.0020065308, 0
46, 740480847, 0.4514, 0.48518077, 0.603641, -0.4432327, -0.027706219, -0.062164765, 0.004307747, 0
47, 740497514, 0.45133364, 0.4851719, 0.6037032, -0.44322515, 0.005592294, -0.12845804, -0.02286911, 0
48, 740514181, 0.45123255, 0.48518333, 0.6037576, -0.4432416, 0.060668793, -0.11151732, 0.0020198822, 0
49, 740530848, 0.45117736, 0.48514146, 0.603833, -0.44324088, 0.019512234, -0.06718755, 0.04947567, 0
50, 740547515, 0.45113882, 0.48510882, 0.60390484, -0.44321796, -0.039128847, -0.0756911, 0.013568878, 0
51, 740564182, 0.45105794, 0.4851237, 0.60392404, -0.44325787, -0.042945333, -0.075525925, 0.02503395, 0
52, 740580849, 0.4509668, 0.48516023, 0.6039427, -0.4432852, -0.08462513, -0.05766433, -0.0073099136, 0
53, 740597516, 0.4508357, 0.48525715, 0.6038977, -0.4433739, -0.03328287, -0.08133793, -0.018834114, 0
54, 740614183, 0.45069, 0.4853598, 0.6038524, -0.44347104, 0.02134437, -0.09286583, -0.033426285, 0
55, 740630850, 0.4505556, 0.4854381, 0.6038269, -0.4435569, 0.05498195, -0.096067436, -0.00374794, 0
56, 740647517, 0.4504279, 0.48546872, 0.60387504, -0.44358763, 0.11391986, -0.13424568, -0.009407043, 0
57, 740664184, 0.45034957, 0.48546356, 0.60394406, -0.44357866, 0.022593137, -0.08787524, 0.01300621, 0
58, 740680851, 0.450206, 0.4855122, 0.6039751, -0.4436289, -0.07875144, -0.096908286, -0.0052986145, 0
59, 740697518, 0.4500153, 0.48562807, 0.6039533, -0.44372544, -0.0041823746, -0.112385, 0.016117096, 0
60, 740714185, 0.44983268, 0.48572648, 0.60394377, -0.44381562, 0.07209679, -0.106586844, 0.008497238, 0
61, 740730852, 0.44965202, 0.48575446, 0.60399437, -0.44389924, 0.09413226, -0.09591634, -0.043293, 0
62, 740747519, 0.4494438, 0.4857929, 0.60405093, -0.44399127, -0.054970104, -0.030141393, -0.026978493, 0
63, 740764186, 0.4490274, 0.4860286, 0.60393065, -0.44431838, -0.16212267, -0.055650704, 0.008787155, 0
64, 740780853, 0.44846585, 0.48645028, 0.6036208, -0.4448443, 0.029528074, -0.08882785, 0.047471046, 0
65, 740797520, 0.44804937, 0.4867259, 0.60341257, -0.44524503, 0.19106558, -0.14009859, 0.03167343, 0
66, 740814187, 0.44781706, 0.48680067, 0.60338, -0.44544086, 0.08325053, -0.16993466, 0.0023651123, 0
67, 740830854, 0.4476827, 0.48682374, 0.60339624, -0.44552878, -0.036584377, -0.1324064, -0.02364254, 0
68, 740847521, 0.4475062, 0.48694178, 0.60335565, -0.44563213, -0.14159992, -0.15006794, 4.749298E-4, 0
69, 740864188, 0.44734326, 0.4871238, 0.6032399, -0.44575354, -0.09048878, -0.18886755, 0.03585148, 0
70, 740880855, 0.44722992, 0.48728645, 0.60314715, -0.44581494, 0.06427987, -0.15363587, 0.009614944, 0
71, 740897522, 0.44719988, 0.48737752, 0.6031117, -0.44579336, 0.08720648, -0.12623855, -0.031554222, 0
72, 740914189, 0.4472221, 0.48739925, 0.6031357, -0.445715, 0.03947909, -0.121179335, -0.036528587, 0
73, 740930856, 0.44725215, 0.48740163, 0.6031862, -0.44561386, 0.087652616, -0.15024608, -0.050043106, 0
74, 740947523, 0.44731537, 0.4873063, 0.60331, -0.4454871, 0.14869893, -0.06532278, 0.013408661, 0
75, 740964190, 0.44741824, 0.48714405, 0.6034772, -0.44533497, 0.22051342, -0.0461181, 1.039505E-4, 0
76, 740980857, 0.44748908, 0.48701307, 0.603625, -0.44520643, 0.085372336, -0.08826705, 0.023722649, 0
77, 740997524, 0.44750983, 0.48683047, 0.6038141, -0.44512904, 0.1283655, -0.122319475, -0.0634222, 0
78, 741014191, 0.4474722, 0.48665833, 0.60399574, -0.4451085, 0.109440215, -0.08639469, -0.06468201, 0
79, 741030858, 0.4474134, 0.4864521, 0.6042226, -0.44508526, 0.091708034, -0.090744026, -0.05377102, 0
80, 741047525, 0.44735208, 0.48625377, 0.6044913, -0.4449987, 0.07478207, -0.2350954, -0.024033546, 0
81, 741064192, 0.44738287, 0.4859812, 0.6048112, -0.44483057, 0.13188337, -0.1703837, -0.03454113, 0
82, 741080859, 0.44760296, 0.48556578, 0.60520935, -0.4445214, 0.01685757, 0.015785603, -0.14954376, 0
83, 741097526, 0.44799802, 0.48514494, 0.6056147, -0.4440306, -0.51657933, 0.008628047, 0.019086838, 0
84, 741114193, 0.4484466, 0.48508793, 0.6056367, -0.44361007, -0.8848554, -0.22949417, 0.08299351, 0
85, 741130860, 0.4488224, 0.48558086, 0.6051674, -0.44333062, -0.6658026, -0.27458233, 0.010293007, 0
86, 741147527, 0.44926965, 0.48624408, 0.60454476, -0.4430004, -0.03727056, -0.16503772, -0.12903881, 0
87, 741164194, 0.44982782, 0.48670897, 0.60415375, -0.4424566, 0.5136062, -0.08588396, -0.26845646, 0
88, 741180861, 0.450179, 0.4870028, 0.60397613, -0.4420182, 0.83461237, -0.03773368, -0.36522198, 0
89, 741197528, 0.4499802, 0.48725134, 0.60393614, -0.4420014, 0.76864696, -0.20331074, -0.16816139, 0
90, 741214195, 0.44934452, 0.48725775, 0.60416996, -0.44232136, 0.9564126, -0.23930973, 0.033733368, 0
91, 741230862, 0.44862112, 0.4868022, 0.6049959, -0.44242868, 0.9909977, -0.24628133, 0.08891106, 0
92, 741247529, 0.44777885, 0.48593998, 0.6062903, -0.4424574, 0.71126765, -0.1935743, 0.20061493, 0
93, 741264196, 0.4468637, 0.48482773, 0.60784245, -0.4424733, 0.4833919, -0.15328094, 0.036024094, 0
94, 741280863, 0.44568613, 0.4837473, 0.6093384, -0.44278592, 0.55121714, -0.2147394, -0.28826523, 0
95, 741297530, 0.4444433, 0.4823825, 0.61130553, -0.4428124, 0.07303509, -0.11183672, -0.14894485, 0
96, 741314197, 0.44332066, 0.4809822, 0.6133135, -0.4426845, -0.5542625, -0.21497118, -0.006790161, 0
97, 741330864, 0.44297248, 0.47961703, 0.61522716, -0.44185808, -1.1792175, -0.12671642, -0.09783554, 0
98, 741347531, 0.44274628, 0.47899446, 0.6165063, -0.44097653, -1.556434, -0.49519607, 0.06118107, 0
99, 741364198, 0.44259247, 0.47919422, 0.61687756, -0.4403941, -1.6668345, -0.49385568, 0.3214426, 0
100, 741380865, 0.44269362, 0.4800202, 0.6165474, -0.43985495, -1.6071522, -0.442825, 0.13138676, 0
101, 741397532, 0.44317904, 0.4810057, 0.6158306, -0.43929324, -1.0019053, -0.34000444, 0.14009476, 0
102, 741414199, 0.44409522, 0.481844, 0.6151702, -0.43837368, -0.31696618, -0.25030568, 0.036147118, 0
103, 741430866, 0.44520086, 0.48262146, 0.61460906, -0.43718246, 0.2291589, 0.046320602, 0.10911083, 0
104, 741447533, 0.44636694, 0.48337212, 0.6142074, -0.4357264, 0.43803847, 0.08712647, 0.019551277, 0
105, 741464200, 0.44757298, 0.48398003, 0.61394554, -0.4341806, 0.6110283, 0.15219668, -0.047096252, 0
106, 741480867, 0.44876978, 0.48438525, 0.6139145, -0.43253413, 0.54372007, 4.8211744E-4, 0.022194862, 0
107, 741497534, 0.4495547, 0.48503417, 0.6138002, -0.43115175, 0.30329904, -0.12648241, 0.1760931, 0
108, 741514201, 0.44988576, 0.486244, 0.6132137, -0.43027738, -0.09310477, -0.41312504, 0.0731554, 0
109, 741530868, 0.44954494, 0.48813796, 0.6121071, -0.43006474, -0.54207414, -0.34547928, 0.14040089, 0
110, 741547535, 0.44882748, 0.4903443, 0.61071134, -0.43028876, -0.10302293, -0.35712206, 0.18982697, 0
111, 741564202, 0.44838592, 0.4923682, 0.6094857, -0.43017566, 0.28069696, -0.35368043, -0.02202034, 0
112, 741580869, 0.44854125, 0.49381477, 0.60875064, -0.42939538, 0.33815587, -0.093487866, -0.019444466, 0
113, 741597536, 0.4489978, 0.494849, 0.6083514, -0.4282921, 0.3681587, -0.14818774, 0.034671783, 0
114, 741614203, 0.44979173, 0.4956184, 0.60808885, -0.4269401, 0.11193998, -0.10404148, -0.1279726, 0
115, 741630870, 0.4500392, 0.4969193, 0.6075052, -0.42599702, -0.35520276, -0.31992885, -0.09511185, 0
116, 741647537, 0.4498061, 0.49891913, 0.6063168, -0.4255988, -0.7232307, -0.30463272, 0.12321949, 0
117, 741664204, 0.44930133, 0.5014291, 0.6045549, -0.42568877, -0.356899, 0.15891413, 0.27615452, 0
118, 741680871, 0.44890854, 0.5038886, 0.60261, -0.4259562, 0.7374064, 0.3868609, 0.041360855, 0
119, 741697538, 0.44929639, 0.50526637, 0.60133374, -0.42571872, 1.1726862, 0.33015522, 0.052866936, 0
120, 741714205, 0.45058087, 0.5052512, 0.60095346, -0.42491552, 0.709842, 0.31934592, 0.30237198, 0
121, 741730872, 0.45196256, 0.5044241, 0.6010367, -0.4243127, 0.30043852, 0.19796409, 0.09871292, 0
122, 741747539, 0.45337078, 0.5032911, 0.6012275, -0.42388523, 0.31217965, -0.0772463, 0.120586395, 0
123, 741764206, 0.45470843, 0.5021623, 0.60139227, -0.42355734, 0.46946594, -0.1667163, 0.0824976, 0
124, 741780873, 0.45563844, 0.5011817, 0.60162586, -0.42338756, 0.62882954, -0.2020765, -0.06282711, 0
125, 741797540, 0.456145, 0.500295, 0.60197604, -0.42339307, 0.6189221, -0.40522364, -0.21365261, 0
126, 741814207, 0.45631313, 0.49959388, 0.60228795, -0.42359614, 0.3266595, -0.3814311, -0.357687, 0
127, 741830874, 0.4561065, 0.49914286, 0.60248464, -0.4240706, -0.090462625, -0.30738777, -0.16481304, 0
128, 741847541, 0.45533115, 0.49918893, 0.60226834, -0.425155, -0.29574206, -0.32549185, 0.222291, 0
129, 741864208, 0.45440385, 0.49933007, 0.60198843, -0.4263762, 0.034741513, -0.5736071, 0.3913231, 0
130, 741880875, 0.45335394, 0.49952248, 0.6018257, -0.4274968, 0.55669254, -0.1438954, -0.060962677, 0
131, 741897542, 0.4523481, 0.49955636, 0.6018986, -0.428419, 0.68473303, -0.17994134, -0.5115166, 0
132, 741914209, 0.45174864, 0.4989749, 0.6025559, -0.42880514, -0.023701314, 0.225888, -0.24120808, 0
133, 741930876, 0.45072734, 0.4983672, 0.60321283, -0.42966202, 0.09515438, -0.16756633, 0.25497055, 0
134, 741947543, 0.45001945, 0.49753267, 0.6038229, -0.43051362, 0.31381106, 0.014517614, 0.13893127, 0
135, 741964210, 0.44903395, 0.49682695, 0.60426986, -0.43172863, 0.1498565, 0.1354846, 0.058546066, 0
136, 741980877, 0.44775897, 0.49594995, 0.6048435, -0.4332551, 0.65882164, -0.03108663, 0.26932335, 0
137, 741997544, 0.44678602, 0.49466652, 0.6056165, -0.4346449, 0.57414263, 0.09609761, -0.289814, 0
138, 742014211, 0.44577098, 0.49306998, 0.6067771, -0.4358807, -0.08650711, 0.117790654, -0.03021431, 0
139, 742030878, 0.4445293, 0.49130076, 0.60779804, -0.43772, 0.17482513, -0.21695307, -0.060836792, 0
140, 742047545, 0.44292143, 0.48967767, 0.60862005, -0.4400208, 0.11125134, -0.3767398, -0.40157223, 0
141, 742064212, 0.44083908, 0.48794225, 0.609738, -0.4424851, -0.039171316, -0.28460956, 0.030625343, 0
142, 742080879, 0.4381536, 0.48647067, 0.6106552, -0.44549736, 0.5467864, -0.53365237, -0.06384373, 0
143, 742097546, 0.4356709, 0.4847267, 0.6121057, -0.44783643, 0.8800416, -0.38836917, -0.42277813, 0
144, 742114213, 0.43367508, 0.48270646, 0.614087, -0.44924116, 0.03695876, -0.33239818, -0.29823208, 0
145, 742130880, 0.43199727, 0.48046944, 0.6163816, -0.45011252, -0.9912093, -0.12755762, 0.16392517, 0
146, 742147547, 0.43018222, 0.4785961, 0.61803395, -0.45157865, -0.55945784, -0.31151938, -0.26661682, 0
147, 742164214, 0.42899355, 0.47692347, 0.61953974, -0.45241472, -0.04097216, -0.29926485, -0.32493114, 0
148, 742180881, 0.4277202, 0.47583658, 0.62071556, -0.45315275, 0.17567538, -0.3660514, -0.08371925, 0
149, 742197548, 0.42625925, 0.47519743, 0.6214878, -0.45414048, 0.11720103, -0.8380908, 0.0032186508, 0
150, 742214215, 0.4249755, 0.47449094, 0.62272906, -0.45438164, -0.6985828, -0.7902678, 0.46960545, 0
151, 742230882, 0.4230498, 0.47440386, 0.62352884, -0.45517212, -1.2460808, -0.64506567, 0.46548462, 0
152, 742247549, 0.42015505, 0.47536033, 0.62339574, -0.45703432, -0.8325815, -0.8700976, 0.073693275, 0
153, 742264216, 0.4168149, 0.47687748, 0.62281644, -0.45929623, -0.62529224, -0.6575759, 0.049656868, 0
154, 742280883, 0.41250712, 0.47917756, 0.6216739, -0.4623294, 0.07976864, -0.67190117, -0.12130833, 0
155, 742297550, 0.40871593, 0.481304, 0.6210235, -0.46435723, 0.435804, -0.3501735, -0.61892986, 0
156, 742314217, 0.40577424, 0.4832305, 0.6210831, -0.46485654, -0.20567818, 0.31417206, -0.073067665, 0
157, 742330884, 0.40267456, 0.48553482, 0.6206239, -0.46576306, -0.28978992, 0.11963296, 0.042116165, 0
158, 742347551, 0.4006376, 0.4871417, 0.6205492, -0.46594137, -0.08428249, 0.10869245, -0.066186905, 0
159, 742364218, 0.39885148, 0.48877499, 0.6203005, -0.46609426, 0.021631584, 0.25430655, -0.004965782, 0
160, 742380885, 0.39761835, 0.49027038, 0.6197723, -0.46627977, 0.046532717, 0.20850451, 0.12112427, 0
161, 742397552, 0.3971539, 0.49136353, 0.6194631, -0.46593574, -0.45118907, 0.20911793, 0.63569546, 0
162, 742414219, 0.39650616, 0.49247307, 0.6187348, -0.46628374, -0.829225, 0.18281248, 0.7102423, 0
163, 742430886, 0.39606366, 0.49341697, 0.61777496, -0.4669343, -0.41198176, 0.18516752, 0.297369, 0
164, 742447553, 0.39626947, 0.49426895, 0.61665547, -0.46733794, -0.2261712, 0.24778669, 0.079854965, 0
165, 742464220, 0.39685813, 0.49537292, 0.61527914, -0.46748373, -0.33591762, 0.24456084, 0.2462368, 0
166, 742480887, 0.3975325, 0.4966782, 0.6135519, -0.467796, -0.40754145, 0.08192923, 0.41414165, 0
167, 742497554, 0.39846525, 0.49787763, 0.6117661, -0.46806583, -0.29902837, -0.018613042, 0.17013645, 0
168, 742514221, 0.39964765, 0.49889952, 0.61003995, -0.46822256, -0.12103003, -0.166204, 0.11664581, 0
169, 742530888, 0.40097427, 0.49974474, 0.6084788, -0.46821827, 0.065726444, -0.4363514, 0.12926483, 0
170, 742547555, 0.4024983, 0.50038403, 0.6072096, -0.46787545, 0.19448845, -0.22536878, -0.11863804, 0
171, 742564222, 0.40380633, 0.50122803, 0.6059636, -0.4674603, 0.65335095, -0.23357014, -0.49168682, 0
172, 742580889, 0.40519825, 0.50229067, 0.60459733, -0.4668843, 0.5720501, -0.58085203, -0.20545006, 0
173, 742597556, 0.40652853, 0.503515, 0.6032113, -0.46620113, 0.12161563, -0.16886516, 0.11054325, 0
174, 742614223, 0.40762362, 0.5047542, 0.6020133, -0.4654527, 0.088567235, -0.14069068, -0.04235077, 0
175, 742630890, 0.40873435, 0.5057815, 0.601116, -0.46452227, 0.3120165, -0.13422735, -0.032025337, 0
176, 742647557, 0.41008526, 0.5065059, 0.6004841, -0.4633582, 0.77097374, -0.20017418, -0.20395565, 0
177, 742664224, 0.41176513, 0.50702435, 0.5999706, -0.46196443, 1.0533957, -0.27921954, -0.464015, 0
178, 742680891, 0.4137115, 0.50744194, 0.5995728, -0.46028045, 0.82130015, -0.2481528, -0.22550869, 0
179, 742697558, 0.41549596, 0.5080638, 0.5987389, -0.459071, 0.6943653, -0.4344533, 0.30453014, 0
180, 742714225, 0.41749123, 0.5081889, 0.59840226, -0.45755866, 0.35071686, -0.34659842, 0.08573437, 0
181, 742730892, 0.41916305, 0.50824934, 0.5983208, -0.45606732, -0.0672099, -0.23728895, 0.08778572, 0
182, 742747559, 0.42063513, 0.50850517, 0.59809554, -0.45472008, -0.4573406, -0.13092339, 0.5361748, 0
183, 742764226, 0.4215049, 0.5089076, 0.59762585, -0.45408145, -0.4777274, -0.04578909, 0.39059067, 0
184, 742780893, 0.42218056, 0.509422, 0.59704286, -0.45364386, -0.1668846, -0.17735842, 0.15584755, 0
185, 742797560, 0.42298898, 0.5098702, 0.596539, -0.4530498, -0.48000413, -0.33307812, 0.09818363, 0
186, 742814227, 0.42382535, 0.5103816, 0.59601986, -0.45237517, -0.9399216, -0.2010356, 0.2946272, 0
187, 742830894, 0.4241532, 0.5113943, 0.59495956, -0.45231983, -0.7574568, -0.60836625, 0.13876247, 0
188, 742847561, 0.424323, 0.5128195, 0.5937468, -0.4521403, -0.5803679, -0.9329287, -0.2014656, 0
189, 742864228, 0.42438936, 0.51462907, 0.59245867, -0.4517116, -0.26727098, -0.8745389, -0.25001907, 0
190, 742880895, 0.4246692, 0.5165207, 0.5912796, -0.4508336, 0.30136475, -0.60419756, -0.25731182, 0
191, 742897562, 0.42571992, 0.51807237, 0.59042895, -0.4491741, 0.7323934, -0.16393267, -0.34625435, 0
192, 742914229, 0.42752475, 0.5191427, 0.59022087, -0.44648966, 0.619592, 0.25480455, -0.3618555, 0
193, 742930896, 0.42959952, 0.5199147, 0.59055907, -0.44314003, 0.29145932, 0.13819583, 0.13710594, 0
194, 742947563, 0.43135422, 0.5204065, 0.5910478, -0.44019666, 0.19354501, -0.023147672, 0.34882545, 0
195, 742964230, 0.4325343, 0.5208377, 0.591199, -0.43832192, 0.20964509, -0.20280604, 0.31455135, 0
196, 742980897, 0.43329015, 0.521468, 0.59087723, -0.4372584, 0.29374006, -0.2570198, -0.040617943, 0
197, 742997564, 0.4333835, 0.5226526, 0.59008676, -0.43681902, 0.3802038, 0.18151912, -0.2473793, 0
198, 743014231, 0.4326772, 0.52450985, 0.58864254, -0.4372412, 0.55583805, 0.15945347, -0.2712593, 0
199, 743030898, 0.43157056, 0.52655673, 0.5872065, -0.43780547, 0.63949585, 0.019617733, -0.092372894, 0
200, 743047565, 0.43046215, 0.5284291, 0.58595985, -0.43831053, 0.45325387, 0.031269684, 0.3532505, 0
201, 743064232, 0.42943197, 0.52984625, 0.5851264, -0.43872362, 0.42134875, -0.16207036, 0.31525135, 0
202, 743080899, 0.4286939, 0.5305584, 0.5847933, -0.43902847, 0.6332287, -0.22469825, 0.121593475, 0
203, 743097566, 0.42849815, 0.5305884, 0.58491427, -0.4390222, 0.7765609, -0.25430545, -0.017663002, 0
204, 743114233, 0.42875785, 0.5301642, 0.5855103, -0.43848637, 0.6134546, -0.07503755, -0.04215908, 0
205, 743130900, 0.42918327, 0.52957916, 0.5862644, -0.43776911, 0.27021554, -0.024813738, 0.25924683, 0
206, 743147567, 0.42936274, 0.5290239, 0.58704466, -0.43721876, 0.005352018, -0.03975111, 0.16757011, 0
207, 743164234, 0.42924318, 0.52857137, 0.5876855, -0.4370222, 0.041228976, -0.13672847, -0.17934895, 0
208, 743180901, 0.42904332, 0.5282597, 0.5881083, -0.4370266, 0.15903975, -0.17506406, -0.3354807, 0
209, 743197568, 0.42884767, 0.52809596, 0.58841586, -0.4370026, 0.07396312, -0.10456741, 0.07832527, 0
210, 743214235, 0.4285101, 0.5281093, 0.5886425, -0.43701255, -0.17782423, 0.012196432, 0.3042965, 0
211, 743230902, 0.4281025, 0.52811, 0.5887436, -0.4372747, -0.16090406, -0.065521255, 0.09056091, 0
212, 743247569, 0.4279405, 0.52788717, 0.5888888, -0.43750677, 0.07804022, -0.14428969, -0.20489693, 0
213, 743264236, 0.42812136, 0.52743435, 0.5891225, -0.43756115, 0.35379598, -0.048310537, -0.28182602, 0
214, 743280903, 0.4286011, 0.52675533, 0.5895396, -0.4373477, 0.49426135, 0.06765916, -0.14307308, 0
215, 743297570, 0.429119, 0.525933, 0.5901669, -0.43698335, 0.3557117, 0.025505288, 0.041522026, 0
216, 743314237, 0.42962977, 0.5250286, 0.5909291, -0.436539, 0.1391138, -0.12590306, 0.17355824, 0
217, 743330904, 0.42999735, 0.5242138, 0.59149617, -0.4363881, -0.06315895, -0.2505967, 0.12898445, 0
218, 743347571, 0.4302086, 0.5235451, 0.5918725, -0.43647224, -0.1492767, -0.22025503, 0.10309696, 0
219, 743364238, 0.4303311, 0.5230212, 0.59208876, -0.4366864, -0.12561183, -0.119530484, 0.14061546, 0
220, 743380905, 0.43038738, 0.52255267, 0.59224594, -0.4369786, -0.05594954, -0.023079948, 0.05204773, 0
221, 743397572, 0.43049216, 0.5220268, 0.5923804, -0.4373217, 0.02257615, -0.04769498, -0.13582706, 0
222, 743414239, 0.43066958, 0.52146524, 0.59254634, -0.43759206, 0.14359993, -0.17596504, -0.2030983, 0
223, 743430906, 0.43081445, 0.5209718, 0.59275365, -0.43775633, 0.15016115, -0.26208526, -0.14151955, 0
224, 743447573, 0.43104967, 0.5205521, 0.5929079, -0.43781513, -0.008207172, -0.3668829, 0.55461216, 0
225, 743464240, 0.4314607, 0.51995885, 0.5932015, -0.43771723, -0.4045408, -0.19787669, 0.8435869, 0
226, 743480907, 0.4317164, 0.51926494, 0.59355366, -0.43781167, -0.4644881, 0.06571527, 0.02541256, 0
227, 743497574, 0.4318715, 0.51876026, 0.5936371, -0.43814367, -0.15418258, -0.203068, -0.6100521, 0
228, 743514241, 0.43195906, 0.51864475, 0.59348, -0.4384069, -0.031952295, -0.35293368, -0.5140209, 0
229, 743530908, 0.43202212, 0.51883066, 0.5931383, -0.43858725, -0.031088417, -0.38754418, -0.22803688, 0
230, 743547575, 0.43193993, 0.519201, 0.5927343, -0.43877605, 0.11825981, -0.41728526, -0.1320343, 0
231, 743564242, 0.43169186, 0.51962656, 0.5924323, -0.43892416, 0.2708416, -0.52617925, -0.16160393, 0
232, 743580909, 0.4314545, 0.52002794, 0.5923769, -0.43875697, 0.3261414, -0.5050843, -0.07648468, 0
233, 743597576, 0.43117705, 0.5205035, 0.5924082, -0.43842357, 0.21612138, -0.3502421, 0.026239395, 0
234, 743614243, 0.430603, 0.5212027, 0.5922515, -0.43836886, 0.084298804, -0.28310508, 0.095980644, 0
235, 743630910, 0.42998493, 0.5219814, 0.59186256, -0.43857422, -0.09198721, -0.32160184, 0.18188572, 0
236, 743647577, 0.42959103, 0.5226372, 0.59144586, -0.43874133, -0.17259514, -0.3079642, 0.25020504, 0
237, 743664244, 0.42936555, 0.52310795, 0.5911344, -0.43882066, -0.13749467, -0.08317319, 0.19621563, 0
238, 743680911, 0.42934275, 0.5233842, 0.5909655, -0.43874118, 0.017957926, 0.055447306, 0.01553154, 0
239, 743697578, 0.42946425, 0.52360696, 0.5908089, -0.43856698, 0.08777019, 0.12795022, -0.031686783, 0
240, 743714245, 0.42960453, 0.52393806, 0.59046656, -0.4384952, -0.015306614, -0.03352225, 0.14042568, 0
241, 743730912, 0.4298211, 0.5242375, 0.5900573, -0.43847606, -0.16566221, -0.111907125, 0.20153141, 0
242, 743747579, 0.42996973, 0.52449995, 0.589656, -0.43855637, -0.24164656, -0.039812353, 0.041472435, 0
243, 743764246, 0.430029, 0.5248392, 0.5891675, -0.43874907, -0.19439839, -0.07835515, -0.04889679, 0
244, 743780913, 0.43008962, 0.5252096, 0.5885929, -0.43901747, -0.0969027, -0.044460304, -0.08010483, 0
245, 743797580, 0.43017006, 0.5255985, 0.5879993, -0.43926844, 0.033175133, -0.08000401, -0.008597374, 0
246, 743814247, 0.43031004, 0.5259122, 0.587527, -0.43938798, 0.08156546, -0.12782572, 0.03269291, 0
247, 743830914, 0.4304745, 0.52611655, 0.58724123, -0.43936434, 0.04764693, -0.2074911, 0.008407593, 0
248, 743847581, 0.43071237, 0.52623755, 0.5870706, -0.43921396, 0.07189182, -0.2281191, 0.014787674, 0
249, 743864248, 0.43107685, 0.52628285, 0.58699197, -0.4389075, 0.056498487, -0.20157605, -0.0046901703, 0
250, 743880915, 0.43136856, 0.52626747, 0.5870224, -0.43859842, -0.080922864, -0.13113214, 0.035595894, 0
251, 743897582, 0.43154517, 0.52621245, 0.5872114, -0.43823773, -0.15037595, -0.30615082, 0.12415981, 0
252, 743914249, 0.4317898, 0.5260845, 0.5874527, -0.43782657, 0.04178977, -0.31841275, 0.035607338, 0
253, 743930916, 0.43222737, 0.52587175, 0.58771425, -0.4372992, 0.21213615, -0.22101073, -0.050398827, 0
254, 743947583, 0.43265998, 0.5256778, 0.588076, -0.43661752, 0.15791525, 0.022609007, -0.02324009, 0
255, 743964250, 0.43291646, 0.5256675, 0.58845675, -0.4358622, -0.0043585026, 0.14982967, 0.16923046, 0
256, 743980917, 0.43292135, 0.52586246, 0.58857965, -0.43545583, -0.14423962, 0.026909396, 0.05485916, 0
257, 743997584, 0.4326586, 0.5262851, 0.58839846, -0.43545118, -0.23816043, -0.26348847, -0.032422066, 0
258, 744014251, 0.43229872, 0.52690214, 0.5880051, -0.43559387, -0.21349175, -0.3523047, 0.05516243, 0
259, 744030918, 0.43169525, 0.5277259, 0.58742803, -0.43597382, -0.114821285, -0.30513453, 0.011601448, 0
260, 744047585, 0.43121356, 0.5285234, 0.5869307, -0.43615404, 0.12443749, -0.3353376, -0.040636063, 0
261, 744064252, 0.4309965, 0.52915835, 0.5866407, -0.4359889, 0.17047445, -0.28717414, -0.037486076, 0
262, 744080919, 0.4309371, 0.52969575, 0.586499, -0.43558538, 0.14577605, -0.25273257, 0.01697731, 0
263, 744097586, 0.4310179, 0.53009254, 0.58652675, -0.43498507, 0.12183848, -0.19120394, 0.0020217896, 0
264, 744114253, 0.43119526, 0.53049356, 0.58656394, -0.43426955, 0.09384818, -0.1642295, -0.05855179, 0
265, 744130920, 0.4313491, 0.5310258, 0.58645964, -0.43360665, -0.001787433, -0.16476414, -0.033122063, 0
266, 744147587, 0.43135062, 0.5317086, 0.5861894, -0.43313375, -0.09758777, -0.17019036, 0.01034832, 0
267, 744164254, 0.43122035, 0.53250986, 0.5857885, -0.43282118, -0.0677423, -0.17613626, 0.06492329, 0
268, 744180921, 0.43108496, 0.5332906, 0.5853897, -0.43253446, 0.05286439, -0.20274033, 0.076859474, 0
269, 744197588, 0.4310466, 0.5339971, 0.5850509, -0.43215936, 0.1639168, -0.2333844, 0.003066063, 0
270, 744214255, 0.43111372, 0.5346414, 0.5848085, -0.43162325, 0.17682937, -0.24085689, -0.05911064, 0
271, 744230922, 0.43122053, 0.53528684, 0.5846112, -0.4309836, 0.10392526, -0.20801076, -0.029732704, 0
272, 744247589, 0.43131566, 0.5359635, 0.5844353, -0.43028533, 0.043946445, -0.17357613, 0.020884514, 0
273, 744264256, 0.43135726, 0.53666806, 0.58426523, -0.4295959, 0.0574055, -0.15835066, 0.01590538, 0
274, 744280923, 0.43137035, 0.53740674, 0.584089, -0.4288984, 0.058776755, -0.18818673, -0.018368721, 0
275, 744297590, 0.4313372, 0.5381726, 0.58391905, -0.42820224, 0.04092187, -0.13382794, 0.042466164, 0
276, 744314257, 0.43122473, 0.5389159, 0.5837962, -0.4275474, 0.01427309, -0.10437518, 0.07368183, 0
277, 744330924, 0.4310484, 0.5396176, 0.5837233, -0.42693952, 0.07212093, -0.14101991, 0.13397884, 0
278, 744347591, 0.4308872, 0.54022235, 0.5837263, -0.4263331, 0.13180938, -0.085475825, 0.07557964, 0
279, 744364258, 0.4307591, 0.54076445, 0.58377784, -0.42570427, 0.16456679, -0.0010029026, 2.002716E-4, 0
280, 744380925, 0.430639, 0.5413066, 0.58385736, -0.42502692, 0.20226291, 0.026736842, -0.0066013336, 0
281, 744397592, 0.43050966, 0.54182065, 0.58400947, -0.4242935, 0.19469431, 0.037775926, 0.036462784, 0
282, 744414259, 0.4303472, 0.5423278, 0.584144, -0.42362463, 0.15569353, -0.05448754, 0.113238335, 0
283, 744430926, 0.4301781, 0.5427484, 0.5842886, -0.42305788, 0.08000155, -0.10862886, 0.15312386, 0
284, 744447593, 0.42998543, 0.54307085, 0.5844685, -0.42259136, 0.028595801, -0.09261416, 0.15343094, 0
285, 744464260, 0.42976502, 0.54333633, 0.58465767, -0.422212, 0.05057137, -0.07549687, 0.14446831, 0
286, 744480927, 0.42957938, 0.5435778, 0.58478636, -0.4219118, 0.04645918, -0.10855644, 0.08608532, 0
287, 744497594, 0.42948055, 0.54374117, 0.5848934, -0.4216535, -0.0048692296, -0.04554613, 0.08470249, 0
288, 744514261, 0.42942184, 0.54386455, 0.5849649, -0.42145538, -0.056573365, 0.014901609, 0.093195915, 0
289, 744530928, 0.4293904, 0.5439405, 0.58500725, -0.4213303, -0.034218494, 0.0382491, 0.09064484, 0
290, 744547595, 0.42934802, 0.54402274, 0.5849828, -0.42130128, -0.004122473, -0.040288433, 0.08775616, 0
291, 744564262, 0.42929786, 0.5441145, 0.5848746, -0.42138416, -0.009677664, -0.14740703, 0.08747196, 0
292, 744580929, 0.4292078, 0.5442476, 0.5847178, -0.42152166, -0.033053767, -0.15153217, 0.082585335, 0
293, 744597596, 0.4290728, 0.54438347, 0.58456874, -0.42169026, -0.013681228, -0.16878134, 0.044493675, 0
294, 744614263, 0.42903498, 0.5444349, 0.5844841, -0.4217797, 0.06272891, -0.11187874, 0.035033226, 0
295, 744630930, 0.429062, 0.54442734, 0.584456, -0.4218008, 0.08529209, -0.10652516, 0.05014229, 0
296, 744647597, 0.42917532, 0.54433316, 0.58450544, -0.42173862, 0.10779806, -0.09275407, 0.048513412, 0
297, 744664264, 0.42931834, 0.5441963, 0.5845808, -0.42166522, 0.04787558, -0.04951438, 0.06608677, 0
298, 744680931, 0.42942667, 0.5440787, 0.5846189, -0.42165375, -0.02001469, -0.090203345, 0.08919048, 0
299, 744697598, 0.42947498, 0.5440169, 0.5845661, -0.4217576, -0.030636922, -0.09611057, 0.09308052, 0
300, 744714265, 0.42949536, 0.5439718, 0.5844701, -0.42192817, 0.0102583505, -0.105536334, 0.058441162, 0
301, 744730932, 0.42952794, 0.5439048, 0.5843928, -0.42208827, 0.06578992, -0.07820785, 0.05382824, 0
302, 744747599, 0.42964613, 0.54374474, 0.5844198, -0.4221369, 0.08588709, -0.07229817, 0.0418272, 0
303, 744764266, 0.4297984, 0.5435619, 0.5844687, -0.4221495, 0.057798214, -0.09933296, 0.03083992, 0
304, 744780933, 0.42995742, 0.54338926, 0.58451116, -0.4221512, -0.0015686139, -0.14304829, 0.04274273, 0
305, 744797600, 0.43008775, 0.5432582, 0.58451384, -0.42218328, -0.062097933, -0.16254756, 0.082707405, 0
306, 744814267, 0.4301846, 0.5431459, 0.5845134, -0.4222298, -0.050036505, -0.14555186, 0.06685734, 0
307, 744830934, 0.43027306, 0.54307896, 0.58446145, -0.42229754, -0.030362, -0.1158347, 0.10334396, 0
308, 744847601, 0.43042842, 0.54297745, 0.58443886, -0.42230108, -0.01350957, -0.0759097, 0.05855465, 0
309, 744864268, 0.4306394, 0.5428355, 0.5844447, -0.42226064, -0.032116577, -0.046103347, 0.03196144, 0
310, 744880935, 0.43090454, 0.5426628, 0.5844848, -0.42215618, -0.03172051, -0.059044078, 0.11254501, 0
311, 744897602, 0.4311386, 0.54245037, 0.58455145, -0.4220981, 0.001103707, -0.09506073, 0.06923294, 0
312, 744914269, 0.43130562, 0.5422913, 0.58456105, -0.4221188, -0.00520964, -0.23460457, -0.025917053, 0
313, 744930936, 0.43149403, 0.5421346, 0.58459294, -0.42208314, -0.01694541, -0.23053439, -0.046642303, 0
314, 744947603, 0.4315919, 0.5420964, 0.58456254, -0.42207432, -0.053689823, -0.22766314, 0.027889252, 0
315, 744964270, 0.43168968, 0.54208565, 0.58448696, -0.42209288, -0.004926896, -0.16623932, 0.07642937, 0
316, 744980937, 0.43184412, 0.5420083, 0.5844655, -0.42206404, 0.08710859, -0.08211531, 0.12580776, 0
317, 744997604, 0.43211177, 0.5417726, 0.5845899, -0.42192024, 0.18494758, 0.0103524495, 0.12353611, 0
318, 745014271, 0.43239027, 0.541473, 0.58474284, -0.4218075, 0.16574089, 4.1461654E-4, 0.04914093, 0
319, 745030938, 0.43266672, 0.5411248, 0.5848854, -0.42177317, -0.005381298, -0.05409751, 0.048256874, 0
320, 745047605, 0.43281844, 0.5409276, 0.5848639, -0.42190045, -0.16607682, -0.13168244, 0.06140709, 0
321, 745064272, 0.43284324, 0.5408882, 0.5846489, -0.42222327, -0.20419249, -0.16630727, 0.117313385, 0
322, 745080939, 0.4327597, 0.5409598, 0.58431464, -0.4226796, -0.15065958, -0.17333162, 0.031367302, 0
323, 745097606, 0.4326637, 0.5410952, 0.5839898, -0.4230534, -0.06131899, -0.1652096, -0.017428398, 0
324, 745114273, 0.43261045, 0.5412404, 0.5837357, -0.42327264, -0.035888806, -0.23230171, -0.029797554, 0
325, 745130940, 0.4325747, 0.54139614, 0.5835259, -0.4233995, -0.012288743, -0.25777325, 0.014719963, 0
326, 745147607, 0.43260083, 0.5415062, 0.5834267, -0.42336854, 0.011053833, -0.21225439, 0.0149822235, 0
327, 745164274, 0.43264043, 0.54161406, 0.583374, -0.42326275, 0.030519353, -0.13018982, 0.0033159256, 0
328, 745180941, 0.4327052, 0.5417058, 0.5833549, -0.4231055, 0.048715096, -0.09603257, 0.03856373, 0
329, 745197608, 0.43278462, 0.5417706, 0.5833259, -0.42298126, 0.020640975, -0.031204198, 0.07727814, 0
330, 745214275, 0.43280858, 0.54182297, 0.5832659, -0.4229722, 0.021734176, -0.031410947, 0.057759285, 0
331, 745230942, 0.43282363, 0.5418665, 0.5831924, -0.42300236, 0.047701463, -0.02027799, 0.081484795, 0
332, 745247609, 0.43286186, 0.541854, 0.5831407, -0.42305052, 0.07230689, -0.0037668638, 0.07785034, 0
333, 745264276, 0.43288192, 0.54183835, 0.5830649, -0.42315447, 0.08136855, -0.052190274, 0.037199974, 0
334, 745280943, 0.43288547, 0.54181594, 0.5830204, -0.42324087, 0.04654881, -0.117795125, -0.0070638657, 0
335, 745297610, 0.43286985, 0.5418469, 0.58293307, -0.4233377, -0.029286232, -0.15630932, 0.025863647, 0
336, 745314277, 0.4327825, 0.541934, 0.58281314, -0.4234805, -0.0026781322, -0.1624425, 0.067741394, 0
337, 745330944, 0.432625, 0.54202724, 0.5827243, -0.42364436, 0.08367051, -0.20493276, 0.06923866, 0
338, 745347611, 0.43250784, 0.5420487, 0.58275497, -0.42369437, 0.11526496, -0.18850568, 0.026520729, 0
339, 745364278, 0.43237537, 0.54210556, 0.5827976, -0.42369816, 0.06471393, -0.106698826, 0.055098534, 0
340, 745380945, 0.43222353, 0.54213536, 0.58290637, -0.4236654, 0.010403858, -0.08716446, 0.061325073, 0
341, 745397612, 0.43205988, 0.5421345, 0.5830527, -0.4236321, -0.0072941217, -0.095384374, 0.03574276, 0
342, 745414279, 0.43185377, 0.5422107, 0.5831158, -0.423658, -0.0057829507, -0.12801614, 0.0057907104, 0
343, 745430946, 0.4316067, 0.5423458, 0.58313125, -0.42371535, -0.036533862, -0.10962036, 0.03718853, 0
344, 745447613, 0.43133143, 0.54256165, 0.5830753, -0.4237963, -0.08407686, -0.077019885, 0.058672905, 0
345, 745464280, 0.43103445, 0.5427658, 0.58304405, -0.42388, -0.080470696, -0.07206058, 0.09513569, 0
346, 745480947, 0.430756, 0.5429351, 0.5830264, -0.42397046, -0.022072574, -0.086084224, 0.04108429, 0
347, 745497614, 0.43050566, 0.5431416, 0.5829577, -0.42405468, -0.0066794613, -0.091649026, 0.002064705, 0
348, 745514281, 0.4303318, 0.5433214, 0.5829076, -0.42407003, -0.06863636, -0.13496338, 0.065205574, 0
349, 745530948, 0.43019035, 0.5435042, 0.5828373, -0.4240758, -0.15174966, -0.13151614, 0.13686275, 0
350, 745547615, 0.43000057, 0.543756, 0.5826849, -0.4241552, -0.17189957, -0.10588032, 0.12135601, 0
351, 745564282, 0.42980412, 0.5440427, 0.5824702, -0.42428133, -0.11628127, -0.13042048, 0.037278175, 0
352, 745580949, 0.42960766, 0.5443863, 0.58221203, -0.42439383, -0.058784578, -0.12038273, -0.043456078, 0
353, 745597616, 0.42944717, 0.5447078, 0.581991, -0.42444685, -0.024196843, -0.087164015, -0.045038223, 0
354, 745614283, 0.42932886, 0.5450289, 0.5817776, -0.42444685, -0.026324462, -0.066432744, 0.03207779, 0
355, 745630950, 0.42931646, 0.5452382, 0.5816552, -0.42435825, 0.007556526, -0.007504224, 0.10507679, 0
356, 745647617, 0.4293661, 0.54534125, 0.58156735, -0.42429608, 0.04763441, -0.034874726, 0.094091415, 0
357, 745664284, 0.42950273, 0.5453287, 0.58153266, -0.42422158, 0.06376422, -0.067334175, 0.0783062, 0
358, 745680951, 0.4296529, 0.54528064, 0.5815096, -0.42416286, 0.06831942, -0.03972831, 0.04370308, 0
359, 745697618, 0.42969516, 0.5452989, 0.58141744, -0.42422286, 0.11080096, -0.070613556, 0.039821625, 0
360, 745714285, 0.42964172, 0.5453837, 0.5812864, -0.42434755, 0.13655658, -0.12420928, 0.10514736, 0
361, 745730952, 0.42955276, 0.5454095, 0.5812547, -0.4244478, 0.14624207, -0.09820623, 0.1260004, 0
362, 745747619, 0.4295124, 0.54529756, 0.5813456, -0.42450815, 0.12436239, -0.06971503, 0.07236767, 0
363, 745764286, 0.42951736, 0.54511213, 0.5815071, -0.42452, 0.10560339, -0.047606025, -0.010790825, 0
364, 745780953, 0.42957604, 0.544873, 0.58171344, -0.42448503, 0.083460405, -0.0118582565, -0.015241623, 0
365, 745797620, 0.4295971, 0.54471195, 0.5818202, -0.42452392, 0.00571545, -0.033578128, 0.12969685, 0
366, 745814287, 0.42962614, 0.54450244, 0.5819197, -0.42462686, -0.047100216, -0.05352241, 0.180377, 0
367, 745830954, 0.4296195, 0.54421806, 0.58206993, -0.42479244, -0.03059356, -0.060044296, 0.07736969, 0
368, 745847621, 0.4296149, 0.5439067, 0.58225554, -0.4249414, 0.025204886, -0.101005726, 0.008639336, 0
369, 745864288, 0.42966005, 0.5435387, 0.5825208, -0.42500314, -0.0010909667, -0.103556685, -0.011522293, 0
370, 745880955, 0.42970413, 0.5432397, 0.5827168, -0.425072, -0.037066493, -0.116654314, 0.021081924, 0
371, 745897622, 0.42969254, 0.54301876, 0.5828477, -0.42518666, -0.049655415, -0.12534785, 0.005051613, 0
372, 745914289, 0.4296041, 0.5428552, 0.5829352, -0.42536497, -0.028906036, -0.1772308, 0.007127762, 0
373, 745930956, 0.4295171, 0.5426364, 0.5830998, -0.42550647, 0.0036264977, -0.1371766, 0.027770996, 0
374, 745947623, 0.42942926, 0.542394, 0.58330286, -0.42562568, 0.017990781, -0.08006122, -0.019802094, 0
375, 745964290, 0.4293384, 0.54216045, 0.5835172, -0.42572084, -3.4957426E-4, -0.0629855, 0.022473335, 0
376, 745980957, 0.42923385, 0.5419475, 0.5837333, -0.4258012, -0.015026776, -0.07064887, 0.068006516, 0
377, 745997624, 0.42912555, 0.54177296, 0.5838882, -0.42592025, -0.03179025, -0.09700887, 0.15066433, 0
378, 746014291, 0.42902035, 0.54157794, 0.5840389, -0.42606777, -0.063748576, -0.06952572, 0.1123991, 0
379, 746030958, 0.42893678, 0.54137844, 0.58418024, -0.42621154, -0.084320486, -0.054971, 0.10561085, 0
380, 746047625, 0.42884257, 0.5412549, 0.58424157, -0.42637897, -0.097430415, -0.038348116, 0.088645935, 0
381, 746064292, 0.42879546, 0.54113084, 0.5842639, -0.4265531, -0.12573923, -0.04253474, 0.09153175, 0
382, 746080959, 0.4288053, 0.54100466, 0.58422315, -0.42675906, -0.15802746, -0.033100035, 0.11340618, 0
383, 746097626, 0.42888597, 0.5408492, 0.58418006, -0.42693424, -0.18683381, -0.028319761, 0.13845539, 0
384, 746114293, 0.42897633, 0.5407342, 0.5841127, -0.42708117, -0.21978432, -0.06543141, 0.17237854, 0
385, 746130960, 0.42909017, 0.54066163, 0.58400744, -0.42720255, -0.25557163, -0.10943105, 0.33382893, 0
386, 746147627, 0.4291569, 0.5406351, 0.58376276, -0.42750347, -0.29073045, 0.011146591, 0.42995548, 0
387, 746164294, 0.42930695, 0.5404846, 0.5835318, -0.4278583, -0.20043032, -0.10377014, 0.22046185, 0
388, 746180961, 0.4297145, 0.5401454, 0.58346635, -0.4279668, -0.13354228, -0.157812, -0.075240135, 0
389, 746197628, 0.43032113, 0.5398041, 0.5834517, -0.427808, -0.16727978, -0.1472899, -0.19651031, 0
390, 746214295, 0.43088436, 0.5396524, 0.5832663, -0.42768517, -0.18944019, -0.19360045, -0.18016529, 0
391, 746230962, 0.43131775, 0.5396459, 0.5829323, -0.42771196, -0.13661447, -0.27417687, -0.052186012, 0
392, 746247629, 0.43173665, 0.53962314, 0.5826452, -0.42770898, -0.07725457, -0.25540578, 0.033514023, 0
393, 746264296, 0.43208554, 0.53967375, 0.582379, -0.42765537, -0.11331928, -0.2383464, 0.06773472, 0
394, 746280963, 0.43236586, 0.53982365, 0.5821041, -0.4275572, -0.3344013, -0.17521292, 0.13525963, 0
395, 746297630, 0.4324956, 0.539999, 0.5818579, -0.4275396, -0.6404386, -0.22512694, 0.26306438, 0
396, 746314297, 0.43235165, 0.54002607, 0.5818878, -0.42761037, -0.9143048, -0.21892692, 0.3012371, 0
397, 746330964, 0.43180948, 0.5398498, 0.5823401, -0.42776498, -1.19607, -0.24049257, 0.10004711, 0
398, 746347631, 0.4307195, 0.53958535, 0.58311445, -0.4281426, -1.4484178, -0.25307602, -0.24645042, 0
399, 746364298, 0.42908895, 0.53914577, 0.5841666, -0.42889854, -1.449528, -0.34391692, -0.41673756, 0
400, 746380965, 0.42701894, 0.53842103, 0.5854719, -0.4300934, -1.1460955, -0.35134763, -0.44175148, 0
401, 746397632, 0.425063, 0.53699696, 0.5872715, -0.43135616, -0.6863587, -0.26302424, -0.48019695, 0
402, 746414299, 0.42354175, 0.53536284, 0.58887076, -0.43270114, 1.7985866, -0.15177268, -0.37922478, 0
403, 746430966, 0.4234286, 0.53477556, 0.5880822, -0.43460658, 5.2292943, -1.1889704, -0.44701958, 0
404, 746447633, 0.42632616, 0.53361934, 0.58841664, -0.43273818, 2.7093806, -0.4033593, -0.6318474, 0
405, 746464300, 0.4291141, 0.5324325, 0.590026, -0.42923895, -1.2678703, 2.26891, 0.8719435, 0
406, 746480967, 0.42910877, 0.53175443, 0.5916902, -0.42779195, -1.4843465, 2.0413375, 1.3842916, 0
407, 746497634, 0.42881742, 0.53053933, 0.5936589, -0.42686406, -0.29706392, 0.06767883, 0.44242477, 0
408, 746514301, 0.42865744, 0.52872795, 0.5957987, -0.42629048, -0.18766014, -0.3830147, 0.3237133, 0
409, 746530968, 0.42795616, 0.527339, 0.5967259, -0.42741746, 0.24183834, -0.34302846, 0.05730152, 0
410, 746547635, 0.42764828, 0.52603686, 0.59728175, -0.42855197, 1.3129312, -0.4601079, -0.4191227, 0
411, 746564302, 0.4279322, 0.5244828, 0.59819096, -0.4289051, 1.4779158, -0.022499708, -0.7376003, 0
412, 746580969, 0.42813557, 0.52284896, 0.59935504, -0.4290717, 0.70201063, 0.57633036, -0.74906445, 0
413, 746597636, 0.42780277, 0.5217295, 0.60054857, -0.42909718, 0.20346183, 0.93626904, -0.6455374, 0
414, 746614303, 0.42648286, 0.5219241, 0.6008022, -0.42981902, 0.93382686, 0.47959936, -0.7876358, 0
415, 746630970, 0.42480424, 0.52321136, 0.6003052, -0.4306101, 1.2174132, 0.18634565, -0.89019394, 0
416, 746647637, 0.42277047, 0.525341, 0.5993133, -0.4313997, 0.21585652, 0.16320156, -0.14210129, 0
417, 746664304, 0.4198258, 0.52823347, 0.59729123, -0.4335425, -0.5930165, -0.44025078, 1.053422, 0
418, 746680971, 0.41643563, 0.53076655, 0.59506553, -0.43676698, -0.8814667, -0.95309144, 1.5471201, 0
419, 746697638, 0.4131783, 0.5319432, 0.5937038, -0.44026822, -0.24099368, -0.7344209, 1.1193514, 0
420, 746714305, 0.4106771, 0.5315322, 0.5935457, -0.4433075, 1.0439602, -0.2946739, -0.071992874, 0
421, 746730972, 0.40945116, 0.5298385, 0.5948096, -0.44477272, 1.7055665, 0.06407088, -0.71468925, 0
422, 746747639, 0.40955052, 0.5273591, 0.5970414, -0.4446373, 0.9158005, 0.3868303, -0.36756134, 0
423, 746764306, 0.41004795, 0.5244315, 0.5996769, -0.44409442, -0.53263944, 0.59948635, 0.38074684, 0
424, 746780973, 0.4097876, 0.5217865, 0.6017728, -0.44461513, -0.8999792, -0.09599122, 0.6481724, 0
425, 746797640, 0.40876263, 0.5197559, 0.6030297, -0.446231, -0.9166937, -0.57825685, 0.34681606, 0
426, 746814307, 0.4072732, 0.51850605, 0.60356045, -0.44832474, -0.9887241, -0.517063, 0.3346243, 0
427, 746830974, 0.40529394, 0.51794374, 0.6035389, -0.45079058, -0.659171, -0.30573443, 0.2831726, 0
428, 746847641, 0.40339923, 0.51748955, 0.6035884, -0.4529401, -0.081810884, -0.40396413, 0.13304424, 0
429, 746864308, 0.40202692, 0.5168202, 0.6040915, -0.45425197, 0.07517143, -0.37487748, 0.042222977, 0
430, 746880975, 0.40090847, 0.51617986, 0.6048444, -0.45496616, -0.079126045, -0.36110663, -0.07873249, 0
431, 746897642, 0.40003332, 0.5156795, 0.60568196, -0.4551895, -0.300118, -0.45768255, -0.04159832, 0
432, 746914309, 0.39920697, 0.51559234, 0.6062976, -0.45519415, -0.53689533, -0.3152192, 0.07742214, 0
433, 746930976, 0.39827472, 0.51589966, 0.6065939, -0.45526797, -0.9406574, -0.22195719, 0.21349525, 0
434, 746947643, 0.39716223, 0.5166363, 0.60646194, -0.45558003, -0.8097734, 0.009973148, 0.3074398, 0
435, 746964310, 0.3961086, 0.5176968, 0.60592175, -0.45601195, -0.4582599, -0.15114906, 0.04449749, 0
436, 746980977, 0.39532682, 0.51896346, 0.60521716, -0.45618632, -0.44763544, -0.08655472, 0.13040543, 0
437, 746997644, 0.39476, 0.5204123, 0.604343, -0.45618552, -0.56603, -0.021148572, 0.38622665, 0
438, 747014311, 0.3945125, 0.5219592, 0.60326046, -0.4560653, -0.36891887, 0.11395607, 0.40822983, 0
439, 747030978, 0.3948679, 0.5234071, 0.60209805, -0.45563412, -0.19961026, 0.31061283, 0.29609966, 0
440, 747047645, 0.3958921, 0.52474904, 0.6009572, -0.45470688, -0.22358917, 0.5083174, 0.36226845, 0
441, 747064312, 0.39740425, 0.5259757, 0.59967166, -0.45366666, -0.5127162, 0.6531839, 0.5757513, 0
442, 747080979, 0.3991395, 0.52722347, 0.59796953, -0.4529413, -0.44482455, 0.61066353, 0.4790516, 0
443, 747097646, 0.401117, 0.5285566, 0.59579515, -0.45250565, -0.21578768, 0.48033673, 0.31660748, 0
444, 747114313, 0.4031362, 0.5300779, 0.5930837, -0.4524937, -0.6528393, 0.4123023, 0.21295738, 0
445, 747130980, 0.40462404, 0.5320065, 0.58975685, -0.4532501, -0.84502226, 0.30832964, 0.3571949, 0
446, 747147647, 0.40584493, 0.534198, 0.5857859, -0.45472774, -0.35077745, 0.1602257, 0.21619892, 0
447, 747164314, 0.4073875, 0.5363269, 0.58173776, -0.45603758, 0.10809757, -0.0014792087, -0.041991234, 0
448, 747180981, 0.40914384, 0.5385317, 0.57779205, -0.4568822, -0.075240046, 0.11487739, 0.17735004, 0
449, 747197648, 0.41098705, 0.5408245, 0.5738152, -0.45753133, 0.027629107, 0.09644137, 0.47803497, 0
450, 747214315, 0.41312253, 0.5427271, 0.56994945, -0.4581863, -0.027993657, -0.04950924, 0.18571377, 0
451, 747230982, 0.41578498, 0.54392195, 0.5664181, -0.4587402, 0.035165966, -0.011121558, -0.05419731, 0
452, 747247649, 0.4183996, 0.5445554, 0.5631182, -0.4596731, -0.05817662, -0.062398337, -0.015370369, 0
453, 747264316, 0.4204895, 0.5450641, 0.5600041, -0.46096572, 0.0134317875, -0.2603481, 0.10384846, 0
454, 747280983, 0.42247418, 0.5454093, 0.55703735, -0.4623352, 0.36419806, -0.35743722, -0.024867058, 0
455, 747297650, 0.4244002, 0.5455829, 0.5543812, -0.46355724, 0.8404409, -0.4896999, -0.32431412, 0
456, 747314317, 0.4264973, 0.54530406, 0.5524855, -0.46422338, 1.2437658, -0.4393764, -0.47854996, 0
457, 747330984, 0.4286663, 0.5447187, 0.5509861, -0.46469462, 1.431537, -0.48896676, -0.7520189, 0
458, 747347651, 0.4312709, 0.5436661, 0.5501319, -0.46452942, 0.85814315, -0.04213979, -0.35725307, 0
459, 747364318, 0.4329784, 0.5431048, 0.5488345, -0.4651318, 0.32821536, 0.101436436, -0.1633482, 0
460, 747380985, 0.43454996, 0.54234576, 0.5474867, -0.46613923, 0.20648238, -0.006845755, -0.34758282, 0
461, 747397652, 0.43570715, 0.5415915, 0.54640627, -0.46720266, -0.11623836, -0.021300562, 0.11299229, 0
462, 747414319, 0.43652198, 0.5409903, 0.54516405, -0.46858755, 0.37093383, -0.38070112, 0.1054554, 0
463, 747430986, 0.43800625, 0.5399625, 0.5444961, -0.46916425, 0.71385074, -0.32508373, -0.21493435, 0
464, 747447653, 0.43977588, 0.538859, 0.54420286, -0.46911782, 0.31164345, -0.011642119, -0.2463417, 0
465, 747464320, 0.4417216, 0.53762096, 0.54406285, -0.4688726, -0.29611018, 0.09415685, -0.11902332, 0
466, 747480987, 0.4433713, 0.5365865, 0.54348034, -0.4691758, -0.5992501, 0.027152577, -1.3828278E-4, 0
467, 747497654, 0.44461158, 0.536248, 0.5419181, -0.47019497, -0.3426002, -0.42213395, -0.2813902, 0
468, 747514321, 0.44580406, 0.536231, 0.5402588, -0.47099435, -0.09293132, -0.09480794, -0.27065372, 0
469, 747530988, 0.4463178, 0.5368493, 0.5382445, -0.4721082, 0.64816165, -0.20370233, -0.35637188, 0
470, 747547655, 0.4471861, 0.5372343, 0.5366881, -0.47262007, 1.3104014, -0.60738844, -0.47164917, 0
471, 747564322, 0.44867545, 0.53688484, 0.536102, -0.47227097, 0.88669354, -0.16015217, -0.3271246, 0
472, 747580989, 0.4501049, 0.5359993, 0.5361212, -0.4718946, 0.4186362, -0.35381764, -0.01510334, 0
473, 747597656, 0.45191425, 0.5343898, 0.5369757, -0.4710183, 0.13237846, -0.6227699, 0.11773491, 0
474, 747614323, 0.45359167, 0.53279734, 0.53786165, -0.4701985, -0.13365874, -0.250303, 0.16349888, 0
475, 747630990, 0.45500135, 0.5315507, 0.5385838, -0.46942, -0.285399, -0.16678113, -0.14600563, 0
476, 747647657, 0.4560876, 0.53070617, 0.539216, -0.46859512, -0.49502754, -0.11075581, -0.13394451, 0
477, 747664324, 0.4569185, 0.5300571, 0.5398618, -0.4677761, -0.13294975, -0.30330127, -0.083045006, 0
478, 747680991, 0.45771194, 0.5293029, 0.5406763, -0.4669129, 0.3230958, -0.2717475, 0.037237167, 0
479, 747697658, 0.45845416, 0.528429, 0.5417386, -0.46594214, 0.17792526, -0.15189092, 0.13951111, 0
480, 747714325, 0.4589431, 0.5276622, 0.54277253, -0.46512574, -0.05272693, -0.110053085, 0.05287552, 0
481, 747730992, 0.45894122, 0.52724504, 0.5435165, -0.46473175, -0.11278151, -0.0036872933, -0.07052803, 0
482, 747747659, 0.45855048, 0.5271403, 0.54406005, -0.4646002, 0.14635025, -0.030469956, -0.17169952, 0
483, 747764326, 0.4578702, 0.5271149, 0.54453737, -0.46474078, 0.48956713, -0.0790648, -0.22991657, 0
484, 747780993, 0.45700362, 0.5267957, 0.5454278, -0.4649113, 0.76832825, -0.2032267, 0.041090965, 0
485, 747797660, 0.45632383, 0.5259871, 0.5468222, -0.4648566, 0.9286029, -0.23835757, 0.08741951, 0
486, 747814327, 0.45584887, 0.5247207, 0.5486376, -0.46461493, 0.4981507, 0.026482709, -0.03992939, 0
487, 747830994, 0.45526385, 0.52335024, 0.5505511, -0.46447062, -0.032794267, 0.073726416, -0.13070965, 0
488, 747847661, 0.45435488, 0.5223058, 0.5521928, -0.46458766, -0.3959389, 0.060415775, -0.21054077, 0
489, 747864328, 0.45320475, 0.5215394, 0.5536256, -0.46486655, -0.24383207, -0.02165617, -0.1230278, 0
490, 747880995, 0.45215604, 0.52080995, 0.5550337, -0.46502656, 0.075591184, -0.14192604, 0.023724556, 0
491, 747897662, 0.45145527, 0.51993495, 0.5565816, -0.46483663, -0.19717576, -0.12616837, 0.021032333, 0
492, 747914329, 0.45099872, 0.51901567, 0.5581721, -0.4643994, -0.2759252, -0.16184215, -0.106856346, 0
493, 747930996, 0.45067108, 0.5181343, 0.559751, -0.46380115, -0.24794203, -0.09513024, -0.121171, 0
494, 747947663, 0.4502638, 0.51742595, 0.5612116, -0.4632221, -0.32827258, -0.118678674, -0.054525375, 0
495, 747964330, 0.44977272, 0.5169024, 0.562404, -0.46283716, -0.18350257, -0.061445277, 0.022280693, 0
496, 747980997, 0.44923905, 0.5165014, 0.56347334, -0.4625024, -0.11551909, 0.008276015, 0.0061206818, 0
497, 747997664, 0.44872814, 0.51609266, 0.56455225, -0.46213895, 0.019880807, -0.0020020055, -0.07161617, 0
498, 748014331, 0.44830063, 0.5156086, 0.56566656, -0.46173126, 0.114142254, -0.0075893826, -0.010960579, 0
499, 748030998, 0.447953, 0.5150873, 0.56679726, -0.46126366, -0.07059076, 0.005789209, -0.029263496, 0
500, 748047665, 0.4476296, 0.5145617, 0.5679437, -0.46075392, -0.07795014, -0.11521668, -0.13922882, 0
501, 748064332, 0.44726744, 0.5140895, 0.56905293, -0.46026352, -0.06634177, -0.06271058, -0.11150837, 0
502, 748080999, 0.44695967, 0.5135349, 0.57025826, -0.45968983, -0.014016274, 0.017563201, -0.03106308, 0
503, 748097666, 0.44674957, 0.5129056, 0.5714219, -0.4591513, -0.056591917, 0.042368893, 0.12321091, 0
504, 748114333, 0.44654626, 0.512387, 0.57242346, -0.45868012, -0.29625437, 0.045782607, 0.17793465, 0
505, 748131000, 0.4463179, 0.5120718, 0.57318306, -0.45830572, -0.38129032, -0.009353793, 0.02950573, 0
506, 748147667, 0.44602418, 0.51197714, 0.57371354, -0.45803368, -0.38998204, -0.06044662, -0.1173687, 0
507, 748164334, 0.44564638, 0.51201975, 0.57413733, -0.4578227, -0.31633252, -0.089148365, 0.009685516, 0
