sep=,
DeviceTag:,Xsens DOT1,,,,,,,,,,,,,,,,,
FirmwareVersion:,2.2.1,,,,,,,,,,,,,,,,,
AppVersion:,2023.6.1,,,,,,,,,,,,,,,,,
SyncStatus:,Un-synced,,,,,,,,,,,,,,,,,
OutputRate:,60Hz,,,,,,,,,,,,,,,,,
FilterProfile:,General,,,,,,,,,,,,,,,,,
Measurement Mode:,Sensor fusion Mode - Extended (Quaternion),,,,,,,,,,,,,,,,,
StartTime:,2024-03-15 15:49:47.562 +0530,,,,,,,,,,,,,,,,,
 2024,,,,,,,,,,,,,,,,,,,

PacketCounter,SampleTimeFine,Quat_W,Quat_X,Quat_Y,Quat_Z,FreeAcc_X,FreeAcc_Y,FreeAcc_Z,Status
1, 745430512, 0.76629466, 0.01429291, -0.63994324, 0.05532656, -0.026796522, 0.010382987, -0.003926277, 0
2, 745447179, 0.76633894, 0.014238247, -0.63989556, 0.055278882, -0.01813763, -0.0063291676, -0.0092048645, 0
3, 745463846, 0.76637477, 0.014241872, -0.6398392, 0.055433962, -0.044948902, -0.02525037, -0.00834465, 0
4, 745480513, 0.7664423, 0.0140871545, -0.63975114, 0.05555536, -0.022829166, 0.010699929, -0.009821892, 0
5, 745497180, 0.76641214, 0.013983625, -0.63978934, 0.055558454, -0.0069382894, 0.025394117, 0.025841713, 0
6, 745513847, 0.76632947, 0.013991486, -0.6398845, 0.05560207, -0.021227472, 0.050105765, 0.03802967, 0
7, 745530514, 0.76627713, 0.014047366, -0.63994473, 0.055612642, -0.009307526, 0.08639345, 0.047704697, 0
8, 745547181, 0.7662441, 0.014119784, -0.6399913, 0.05551394, -0.021570342, 0.081201926, 0.0099983215, 0
9, 745563848, 0.7662344, 0.0142544685, -0.6400079, 0.05542085, -0.029838532, 0.06838673, 0.018538475, 0
10, 745580515, 0.76624024, 0.014353833, -0.64001244, 0.055263337, -0.047023103, 0.025612922, 0.012066841, 0
11, 745597182, 0.7662175, 0.0144604, -0.6400497, 0.055119827, -0.020339679, -0.0052709104, -0.004137039, 0
12, 745613849, 0.7661533, 0.014506502, -0.6401364, 0.05499429, -0.040331572, -0.012069441, 0.028664589, 0
13, 745630516, 0.7660798, 0.014521619, -0.64023083, 0.054913245, -0.052247494, 0.014800029, -4.644394E-4, 0
14, 745647183, 0.7659691, 0.014548886, -0.6403654, 0.054880213, -0.054778554, 0.016713893, -0.026574135, 0
15, 745663850, 0.76585066, 0.014576306, -0.64050734, 0.054869384, -0.07433862, 0.029745376, -5.559921E-4, 0
16, 745680517, 0.76571083, 0.014642181, -0.64067036, 0.054900087, -0.063624755, 0.031217495, 0.0066070557, 0
17, 745697184, 0.76554954, 0.0147239035, -0.6408572, 0.054945454, -0.044207733, 0.034175318, 0.025562286, 0
18, 745713851, 0.76538134, 0.014749328, -0.64105415, 0.05498519, -0.07244681, 0.03624639, 0.0152282715, 0
19, 745730518, 0.76522213, 0.014753724, -0.6412397, 0.055036698, -0.05709728, 0.033629425, 0.014127731, 0
20, 745747185, 0.76509875, 0.014701864, -0.6413836, 0.055089653, -0.057090126, 0.03482408, -0.0019083023, 0
21, 745763852, 0.76497865, 0.014659357, -0.64152306, 0.055145606, -0.14308316, 0.025168236, 0.04018879, 0
22, 745780519, 0.7648885, 0.0146008935, -0.6416312, 0.055153325, -0.09441679, 0.01627145, 0.057804108, 0
23, 745797186, 0.7647938, 0.014609136, -0.6417426, 0.055167727, -0.06836099, 0.009916543, 0.041321754, 0
24, 745813853, 0.7646722, 0.014613958, -0.64188796, 0.055160552, -0.1089268, 0.0013921853, 0.042757034, 0
25, 745830520, 0.76454735, 0.014592664, -0.6420386, 0.05514537, -0.12933354, 0.009517182, 0.028845787, 0
26, 745847187, 0.76440555, 0.014593266, -0.6422064, 0.055158067, -0.1275803, 0.015329971, -0.015138626, 0
27, 745863854, 0.7642715, 0.014541668, -0.64236933, 0.055132456, -0.11417042, 0.026330672, -0.037919044, 0
28, 745880521, 0.76414824, 0.014493263, -0.6425204, 0.05509218, -0.14143409, 0.020471893, -0.014321327, 0
29, 745897188, 0.7640136, 0.014490293, -0.64268327, 0.055060618, -0.13290215, -0.010509907, -0.005464554, 0
30, 745913855, 0.7638543, 0.014495803, -0.64287406, 0.05504097, -0.1352839, -0.019804351, 0.02929306, 0
31, 745930522, 0.76368856, 0.014496406, -0.64307463, 0.05499648, -0.16591367, -0.011664317, 0.046216965, 0
32, 745947189, 0.76349455, 0.014534633, -0.6433044, 0.054993268, -0.1483831, -0.011315231, 0.020813942, 0
33, 745963856, 0.763285, 0.014573081, -0.64355236, 0.05499352, -0.13798259, -0.0030964995, -4.1770935E-4, 0
34, 745980523, 0.7630949, 0.014601402, -0.643778, 0.054980483, -0.1228615, 0.0040691583, 0.0075950623, 0
35, 745997190, 0.7629215, 0.014609515, -0.64398557, 0.05495401, -0.12948106, 0.008523255, 0.031303406, 0
36, 746013857, 0.7627553, 0.014628013, -0.6441827, 0.054946315, -0.152637, 0.01341385, 0.027188301, 0
37, 746030524, 0.762571, 0.014631079, -0.64440304, 0.054919377, -0.17661367, 0.010118942, 0.05684185, 0
38, 746047191, 0.76239973, 0.014638439, -0.6446056, 0.054917995, -0.18096995, -0.004401494, 0.04728985, 0
39, 746063858, 0.76224226, 0.014664868, -0.6447907, 0.054923274, -0.19903381, -0.01000942, 0.024443626, 0
40, 746080525, 0.762086, 0.014707163, -0.64497495, 0.05491671, -0.1622883, -0.016333314, -3.004074E-4, 0
41, 746097192, 0.7619338, 0.014761827, -0.64515334, 0.054919694, -0.17295343, -0.027926212, 0.0069446564, 0
42, 746113859, 0.76177615, 0.0147984605, -0.64533836, 0.054925125, -0.18193954, -0.0013732497, 0.007446289, 0
43, 746130526, 0.7616005, 0.014845632, -0.6455418, 0.054956917, -0.22734128, 0.013954501, 0.004392624, 0
44, 746147193, 0.76142097, 0.014892098, -0.6457486, 0.055000946, -0.23991792, 0.019830747, 0.021157265, 0
45, 746163860, 0.761254, 0.0149205215, -0.6459417, 0.055037223, -0.23563004, 0.024273423, 0.011756897, 0
46, 746180527, 0.7610777, 0.014920133, -0.64614934, 0.055038247, -0.2113856, -0.008630834, 0.034330368, 0
47, 746197194, 0.76089764, 0.014955348, -0.6463582, 0.055066396, -0.20707493, -0.013073399, 0.04874897, 0
48, 746213861, 0.7607426, 0.014951774, -0.6465412, 0.055059746, -0.24777976, -0.010989685, 0.0322237, 0
49, 746230528, 0.7605773, 0.015010475, -0.64673126, 0.055094313, -0.24522276, 0.0045370823, 0.0074853897, 0
50, 746247195, 0.7603886, 0.015072479, -0.64694875, 0.055129874, -0.21853398, 0.017289774, -0.023216248, 0
51, 746263862, 0.76017815, 0.015068384, -0.64719623, 0.05513126, -0.25091475, 0.0021635774, -0.008548737, 0
52, 746280529, 0.75997096, 0.015046516, -0.6474405, 0.055126593, -0.31188998, -0.003127582, -0.004119873, 0
53, 746297196, 0.7597376, 0.015034198, -0.64771235, 0.05515003, -0.30125344, -0.006563926, -0.0013151169, 0
54, 746313863, 0.75951093, 0.0150100505, -0.6479784, 0.055156585, -0.28061515, -0.0069088554, 0.040821075, 0
55, 746330530, 0.7593076, 0.014938169, -0.64822245, 0.055106044, -0.26071534, 0.003506094, 0.036532402, 0
56, 746347197, 0.7591127, 0.014879849, -0.64845395, 0.055082582, -0.31668746, 0.0018841234, 0.051675797, 0
57, 746363864, 0.7589156, 0.014833589, -0.648687, 0.055068165, -0.31127575, 0.010457717, 0.047394753, 0
58, 746380531, 0.7587104, 0.014796561, -0.6489308, 0.05503242, -0.25847664, -0.020412488, 0.008433342, 0
59, 746397198, 0.75852907, 0.014838796, -0.64914316, 0.05501678, -0.24649501, 0.012568064, 0.009514809, 0
60, 746413865, 0.75838643, 0.014922576, -0.6493094, 0.054996014, -0.27405816, -0.010194928, 0.07966614, 0
61, 746430532, 0.758227, 0.015077403, -0.64948356, 0.055097304, -0.2868078, -0.04201088, 0.09403324, 0
62, 746447199, 0.75806266, 0.015234715, -0.64965904, 0.055246554, -0.27780336, -0.05198938, 0.058247566, 0
63, 746463866, 0.7578929, 0.015387425, -0.6498369, 0.055441044, -0.23953123, -0.046053383, -0.004720688, 0
64, 746480533, 0.75775164, 0.015530223, -0.6499815, 0.055634983, -0.23498319, -0.051806558, -0.01234436, 0
65, 746497200, 0.75758606, 0.015807329, -0.6501424, 0.055932086, -0.2847832, -0.039266266, -0.040836334, 0
66, 746513867, 0.7573942, 0.016122079, -0.65033054, 0.056250922, -0.27508098, 0.0023792256, -0.021875381, 0
67, 746530534, 0.75715595, 0.016481588, -0.650566, 0.056631997, -0.28464195, -0.0051823994, 8.2969666E-5, 0
68, 746547201, 0.7568696, 0.01684897, -0.6508493, 0.057094973, -0.2614136, 0.018872134, -0.018969536, 0
69, 746563868, 0.75659364, 0.017251238, -0.65110755, 0.05768516, -0.2973697, 0.006726525, 0.012095451, 0
70, 746580535, 0.75639135, 0.017560488, -0.65127903, 0.058308367, -0.34866634, 0.0016125202, 0.037656784, 0
71, 746597202, 0.7561806, 0.01786778, -0.65146154, 0.05890331, -0.3919219, -0.0057947133, 0.050251007, 0
72, 746613869, 0.7559175, 0.018229429, -0.65169936, 0.059534512, -0.42343366, 0.011977416, 0.080732346, 0
73, 746630536, 0.75571775, 0.018513735, -0.6518675, 0.060140256, -0.5072725, 0.07831397, 0.10915947, 0
74, 746647203, 0.7556272, 0.018639345, -0.65192693, 0.060592715, -0.5763357, 0.16529678, 0.1453352, 0
75, 746663870, 0.755702, 0.018661352, -0.65181196, 0.060886826, -0.65639585, 0.21212621, 0.19294071, 0
76, 746680537, 0.755965, 0.018612277, -0.6514973, 0.061007172, -0.7537751, 0.18045735, 0.28481102, 0
77, 746697204, 0.75640905, 0.018564243, -0.65098417, 0.060994726, -0.8170757, 0.03654775, 0.4777975, 0
78, 746713871, 0.757027, 0.018592915, -0.65025735, 0.061073665, -0.7524519, -0.053073753, 0.576869, 0
79, 746730538, 0.7578668, 0.018874407, -0.64924085, 0.06138618, -0.73752165, -0.15383676, 0.4847355, 0
80, 746747205, 0.7588978, 0.019571148, -0.6479502, 0.062060323, -0.7797196, -0.28578916, 0.35682583, 0
81, 746763872, 0.7600591, 0.02046439, -0.646472, 0.062973455, -0.8937559, -0.32265913, 0.23246193, 0
82, 746780539, 0.7611829, 0.02133492, -0.6450217, 0.0639725, -0.92603695, -0.23418346, 0.17947769, 0
83, 746797206, 0.7623629, 0.022108877, -0.6434897, 0.06507784, -0.94343793, -0.039553396, 0.2710266, 0
84, 746813873, 0.763828, 0.022421453, -0.6416358, 0.06608911, -1.0382476, 0.23157997, 0.48958683, 0
85, 746830540, 0.76568913, 0.022134138, -0.63935614, 0.06673975, -1.1667408, 0.5125928, 0.890851, 0
86, 746847207, 0.7681686, 0.021369442, -0.6363873, 0.06686995, -1.1973021, 0.6940058, 1.2255859, 0
87, 746863874, 0.7716609, 0.0203528, -0.63220507, 0.06664838, -1.2673461, 0.72216344, 1.0035839, 0
88, 746880541, 0.7759206, 0.019106036, -0.62706256, 0.06614081, -1.4028518, 0.6451142, 0.4477415, 0
89, 746897208, 0.78055245, 0.017638838, -0.62141824, 0.06531765, -1.48932, 0.4573392, -0.06794357, 0
90, 746913875, 0.7851777, 0.015937189, -0.6157141, 0.064327836, -1.6396322, 0.27491444, -0.59006596, 0
91, 746930542, 0.78942657, 0.014080245, -0.61043704, 0.06304143, -1.4858086, -0.0035876064, -1.025094, 0
92, 746947209, 0.7934212, 0.0123676695, -0.6054336, 0.061481647, -1.2141621, -0.28995994, -1.1650801, 0
93, 746963876, 0.7971592, 0.0111999465, -0.60070276, 0.059732, -1.0090619, -0.54795897, -1.0125599, 0
94, 746980543, 0.8006018, 0.010691782, -0.5962877, 0.057995867, -0.8750756, -0.7031658, -0.8826456, 0
95, 746997210, 0.80376256, 0.01084175, -0.59214926, 0.056637596, -0.6829295, -0.81508017, -0.7991619, 0
96, 747013877, 0.8064373, 0.0113514485, -0.58857876, 0.05572573, -0.4642592, -0.7188471, -0.55969715, 0
97, 747030544, 0.8087849, 0.011926961, -0.58535695, 0.05551692, -0.121493146, -0.37201047, -0.17730999, 0
98, 747047211, 0.8112159, 0.012055756, -0.5819222, 0.05612886, 0.0079660015, -0.007392642, 0.31104946, 0
99, 747063878, 0.8138767, 0.011407873, -0.5780915, 0.057314012, -0.029016452, 0.2775751, 0.51864433, 0
100, 747080545, 0.816581, 0.009955336, -0.57415915, 0.05863427, -0.09838906, 0.32310656, 0.34398842, 0
101, 747097212, 0.8193696, 0.0077980403, -0.57009023, 0.059748568, -0.07685314, 0.3395056, 0.3478756, 0
102, 747113879, 0.8225392, 0.0049600666, -0.565477, 0.060335014, 0.019329848, 0.34485412, 0.39317417, 0
103, 747130546, 0.8259677, 0.001559276, -0.5604865, 0.06024973, 0.17408799, 0.4190596, 0.5672865, 0
104, 747147213, 0.8297466, -0.0021174669, -0.55493206, 0.059721753, 0.41686642, 0.6215086, 0.6720495, 0
105, 747163880, 0.8337277, -0.0055975835, -0.5490086, 0.058791917, 0.28090885, 0.7904166, 0.40448856, 0
106, 747180547, 0.83791864, -0.008694855, -0.54266775, 0.057694223, 0.6452721, 0.82234854, 0.31875134, 0
107, 747197214, 0.8426231, -0.011418978, -0.5354202, 0.0564022, 0.90685374, 0.4591018, 0.08501339, 0
108, 747213881, 0.84737855, -0.013757125, -0.52791065, 0.05541593, 0.90681756, 0.15492862, -0.12275791, 0
109, 747230548, 0.85214627, -0.015827624, -0.5201553, 0.055089753, 0.7581448, -0.10134396, -0.29056263, 0
110, 747247215, 0.85692525, -0.017763995, -0.51214695, 0.055400882, 0.47460875, -0.2711996, -0.24156857, 0
111, 747263882, 0.86123836, -0.01932886, -0.50471675, 0.056179117, 0.4687326, -0.38005424, -0.057566643, 0
112, 747280549, 0.8652399, -0.02039515, -0.49767923, 0.05709243, 0.4524689, -0.4484598, -0.17599392, 0
113, 747297216, 0.8690128, -0.021080678, -0.4909172, 0.0580752, 0.25073415, -0.44468984, -0.22658062, 0
114, 747313883, 0.87274736, -0.021650067, -0.48408726, 0.05918582, 0.40353388, -0.25429058, -0.34651852, 0
115, 747330550, 0.8762472, -0.022323392, -0.47752872, 0.060490534, -0.08512983, 0.007713502, 0.03911686, 0
116, 747347217, 0.87889564, -0.022879384, -0.47245684, 0.06167452, -0.12697548, -0.079894386, 0.0854826, 0
117, 747363884, 0.8812167, -0.023071889, -0.4679629, 0.06273494, -0.16414747, -0.0721215, 0.36338234, 0
118, 747380551, 0.88341403, -0.022805285, -0.46367088, 0.0637897, -0.018434454, -0.04534135, 0.19928074, 0
119, 747397218, 0.8857401, -0.021855598, -0.45909712, 0.06493829, 0.011559643, -0.046200182, 0.0729599, 0
120, 747413885, 0.88809204, -0.020242842, -0.4543842, 0.06646789, 0.23965238, -0.13806012, -0.32908154, 0
121, 747430552, 0.8901944, -0.018466605, -0.4500989, 0.067999884, 0.12787937, -0.032176815, 0.12344551, 0
122, 747447219, 0.89234596, -0.0164527, -0.44573715, 0.069039464, 0.42847165, -0.10833105, -0.087408066, 0
123, 747463886, 0.89483905, -0.01414578, -0.44071805, 0.06950283, -0.2694357, 0.11584358, -0.32032013, 0
124, 747480553, 0.8974923, -0.011456024, -0.4354009, 0.06929956, -0.52244234, 0.49743044, -0.26077843, 0
125, 747497220, 0.9001338, -0.008513905, -0.43008277, 0.068669535, -0.552978, 0.7625369, -0.46076965, 0
126, 747513887, 0.9031611, -0.005615511, -0.4239034, 0.06763603, 0.040443774, 0.8590165, -0.5369015, 0
127, 747530554, 0.9061648, -0.0033741957, -0.41770276, 0.0661696, -0.014926866, 0.83783615, -0.12519455, 0
128, 747547221, 0.90892637, -0.0018877683, -0.4119709, 0.06425923, -0.29491013, 0.6845853, -0.2448101, 0
129, 747563888, 0.9115729, -5.615541E-4, -0.40645215, 0.061896443, -0.475288, 0.41929597, -0.18418312, 0
130, 747580555, 0.91421556, 0.0010915995, -0.4009075, 0.059008688, -0.79295355, 0.2533485, -0.4624462, 0
131, 747597222, 0.9169284, 0.002883439, -0.39512533, 0.05576899, -0.2640372, 0.30512115, -1.074419, 0
132, 747613889, 0.9197182, 0.0044105807, -0.3890207, 0.052555285, -0.17631328, 0.18878855, -1.1904984, 0
133, 747630556, 0.9224671, 0.0056817625, -0.38284203, 0.049543712, -0.13270143, 0.06678528, -1.0354395, 0
134, 747647223, 0.92509085, 0.0063670687, -0.3768482, 0.046388485, -0.6807228, -0.06555999, -1.1082754, 0
135, 747663890, 0.9275135, 0.0066781244, -0.37122682, 0.043184035, -1.0513151, 0.10732342, -1.1199341, 0
136, 747680557, 0.92955726, 0.006938528, -0.36641172, 0.04022212, -1.1030244, 0.47529745, -1.1821194, 0
137, 747697224, 0.93149495, 0.007312354, -0.36173534, 0.03756652, -0.8652182, 0.6966297, -1.2429123, 0
138, 747713891, 0.9331691, 0.0076803616, -0.35762957, 0.03518114, -0.6053042, 0.49208647, -1.24475, 0
139, 747730558, 0.93457305, 0.007828688, -0.35415474, 0.03296069, -0.9208794, -0.0642488, -0.86996174, 0
140, 747747225, 0.93572116, 0.007827329, -0.35131255, 0.030726787, -1.0966026, -0.9771085, -0.7036791, 0
141, 747763892, 0.93687457, 0.007934887, -0.34841773, 0.028429424, -0.80523115, -1.3509629, -0.66782, 0
142, 747780559, 0.9379114, 0.008392302, -0.34577775, 0.026260655, -1.0979685, -1.3028518, -0.69078255, 0
143, 747797226, 0.9386748, 0.0090015605, -0.34381378, 0.02451241, -0.89780504, -0.7283252, -0.52726555, 0
144, 747813893, 0.93952835, 0.009349896, -0.3415622, 0.023120495, -0.81716424, 0.19169955, -0.27099323, 0
145, 747830560, 0.94041103, 0.008869083, -0.3392247, 0.021796577, -1.1142943, 0.919696, -0.3031168, 0
146, 747847227, 0.9410554, 0.0066934614, -0.337576, 0.020311337, -0.6475226, 1.088385, -0.7203102, 0
147, 747863894, 0.9415674, 0.0028035163, -0.3363211, 0.018195653, -0.5075454, 0.92476946, -0.112080574, 0
148, 747880561, 0.9419012, -0.0018738944, -0.33551908, 0.015671756, -0.4745855, 0.75300384, -0.075777054, 0
149, 747897228, 0.9420588, -0.0061616967, -0.33512342, 0.013403636, -0.5636782, 0.8449161, -0.058366776, 0
150, 747913895, 0.9421251, -0.0097679915, -0.33493057, 0.011253515, -0.6271964, 0.8636199, -0.3471403, 0
151, 747930562, 0.9421231, -0.012707386, -0.33490634, 0.008963139, -0.5204021, 0.2604102, -0.4967928, 0
152, 747947229, 0.9420649, -0.015642025, -0.33500683, 0.006311829, -0.80579036, -0.59039587, -0.3676548, 0
153, 747963896, 0.9418306, -0.018718831, -0.33554822, 0.0035093045, -0.708952, -0.98118174, -0.0020742416, 0
154, 747980563, 0.9413748, -0.021867616, -0.33665222, 7.8836724E-4, -0.70730364, -0.665903, 0.106648445, 0
155, 747997230, 0.94087696, -0.024658374, -0.3378465, -0.0015128497, -0.76294494, 0.005233137, 0.32123375, 0
156, 748013897, 0.94031566, -0.027288621, -0.33918938, -0.00355119, -1.0399562, 0.36919245, 0.6428318, 0
157, 748030564, 0.93976706, -0.030275684, -0.34042394, -0.0057338355, -1.1108956, 0.17640936, 0.7698536, 0
158, 748047231, 0.93908274, -0.033407405, -0.34197053, -0.0079919575, -1.0836178, -0.23942001, 0.9104204, 0
159, 748063898, 0.9382992, -0.036363915, -0.34375474, -0.010263282, -0.85921174, -0.58061427, 1.0422382, 0
160, 748080565, 0.9375558, -0.038988866, -0.3454179, -0.012480995, -0.882097, -0.77790767, 1.2150412, 0
161, 748097232, 0.9367752, -0.041213885, -0.34719685, -0.014422514, -0.90856856, -0.71873075, 1.2825212, 0
162, 748113899, 0.93604904, -0.04289866, -0.3488779, -0.016012205, -0.7823398, -0.6385978, 1.1912069, 0
163, 748130566, 0.9354633, -0.04418312, -0.35023302, -0.017133703, -0.45141572, -0.42496276, 0.9022722, 0
164, 748147233, 0.93507886, -0.045552813, -0.35104668, -0.017860595, -0.8268862, -0.19029555, 0.32138443, 0
165, 748163900, 0.9345318, -0.047284137, -0.35224494, -0.018385699, -1.0164263, -0.01207023, -0.21094799, 0
166, 748180567, 0.9337767, -0.04934477, -0.3539449, -0.018696198, -1.1298892, 0.073225275, -0.29660797, 0
167, 748197234, 0.93274814, -0.051285475, -0.35636398, -0.018859355, -1.2222198, -0.06829525, -0.6577234, 0
168, 748213901, 0.9315058, -0.052842166, -0.359366, -0.018995838, -1.2954624, -0.41912898, -0.89833546, 0
169, 748230568, 0.92989874, -0.053991005, -0.36333454, -0.019019902, -1.1648608, -0.56813985, -1.0814896, 0
170, 748247235, 0.9281859, -0.054974355, -0.36754748, -0.018910883, -1.0461873, -0.47185406, -1.2268848, 0
171, 748263902, 0.92612875, -0.055878554, -0.37257782, -0.01868017, -1.0462769, -0.32706222, -1.4712896, 0
172, 748280569, 0.9238267, -0.05680172, -0.37812462, -0.018436192, -0.99914896, -0.11082147, -1.7419329, 0
173, 748297236, 0.921147, -0.057723537, -0.38447663, -0.018278642, -1.2903982, -0.020367926, -1.8895693, 0
174, 748313903, 0.9179703, -0.0586338, -0.39187264, -0.01813218, -1.2384217, -0.1071546, -1.9551668, 0
175, 748330570, 0.9142639, -0.059568357, -0.400315, -0.017926518, -0.92757857, -0.17992173, -1.7838039, 0
176, 748347237, 0.91002136, -0.060973562, -0.40966877, -0.01774485, -0.6675022, -0.24846092, -1.4548731, 0
177, 748363904, 0.9052876, -0.06186209, -0.4199043, -0.017546603, -0.13860731, -0.35929483, -1.0277357, 0
178, 748380571, 0.9000715, -0.063054584, -0.43078592, -0.017870378, 0.12870257, -0.25632936, -0.7568102, 0
179, 748397238, 0.89456284, -0.06373618, -0.4420085, -0.01799239, 0.11192143, -0.24553435, -0.6351986, 0
180, 748413905, 0.8886111, -0.06450786, -0.45375073, -0.017876461, -0.19747011, -0.21582367, -0.077638626, 0
181, 748430572, 0.88231957, -0.06503397, -0.46581998, -0.017166397, -0.41296118, 0.06344164, 0.5443363, 0
182, 748447239, 0.87543607, -0.06631023, -0.47849357, -0.016086085, -0.75004065, -0.016688762, 1.8485384, 0
183, 748463906, 0.8680152, -0.068512425, -0.49157414, -0.014512496, 0.47512597, -0.3463369, 3.1626263, 0
184, 748480573, 0.86085254, -0.07100857, -0.5037073, -0.013022509, 0.37824383, -0.1255436, 3.9135609, 0
185, 748497240, 0.8531321, -0.07307942, -0.5164266, -0.011340569, 0.30157933, -0.06706076, 4.1750746, 0
186, 748513907, 0.84497964, -0.075016856, -0.5294201, -0.00982549, 1.0105169, 0.26699147, 4.365882, 0
187, 748530574, 0.83700913, -0.0770509, -0.5416689, -0.008598415, 1.6085445, 0.28541642, 3.9362803, 0
188, 748547241, 0.8295414, -0.07916137, -0.5527468, -0.008115919, 1.3012799, 0.078903206, 3.0514212, 0
189, 748563908, 0.8224118, -0.08145702, -0.56297046, -0.008257614, 1.0324252, 0.025868664, 1.9106398, 0
190, 748580575, 0.8154179, -0.08384371, -0.5727041, -0.008619423, 1.1735351, 0.04278172, 0.9747257, 0
191, 748597242, 0.8090911, -0.085817344, -0.58131456, -0.008972145, 1.4093891, -0.15729848, 0.19204998, 0
192, 748613909, 0.80330676, -0.08777572, -0.5889835, -0.009605501, 1.4947245, -0.062691584, 0.44116497, 0
193, 748630576, 0.7986788, -0.08692413, -0.5953751, -0.0092130685, 10.119583, -1.3178967, 7.2629395, 0
194, 748647243, 0.79649436, -0.08431729, -0.5987065, -0.006175054, -3.2524269, -0.24833368, 0.5974617, 0
195, 748663910, 0.78891385, -0.083529234, -0.60878515, -0.00431103, 0.47405756, 0.3981363, 2.0367632, 0
196, 748680577, 0.78250015, -0.08348609, -0.61702555, -0.0017734785, 1.075695, -0.034631822, 0.9758539, 0
197, 748697244, 0.77935666, -0.08288446, -0.62107396, 8.4417686E-4, 1.1096838, 0.32562152, -0.6292839, 0
198, 748713911, 0.7788526, -0.081040986, -0.6219464, 0.0019841585, -0.11209354, -0.24900942, -0.14732647, 0
199, 748730578, 0.7782507, -0.07896634, -0.6229635, 0.0025931022, -0.7760947, 0.010167101, -0.27938747, 0
200, 748747245, 0.7765566, -0.07718334, -0.62529474, 0.0030629206, -0.64608073, -0.32016075, -0.31332684, 0
201, 748763912, 0.7740504, -0.075387724, -0.6286139, 0.0027427077, -0.15594007, -0.18833761, -0.6433487, 0
202, 748780579, 0.77201086, -0.07353705, -0.63133824, 0.0019140486, 0.13103536, -0.07079784, 0.59206486, 0
203, 748797246, 0.7702145, -0.072277285, -0.63367397, 0.0017486655, 0.030416984, -0.12256814, 0.3303938, 0
204, 748813913, 0.7678769, -0.071114026, -0.6366345, 0.0021009075, -0.037894387, -0.17279993, 0.30362415, 0
205, 748830580, 0.7651705, -0.070129015, -0.6399911, 0.0027166938, 0.14209524, -0.12893982, -0.22386265, 0
206, 748847247, 0.762545, -0.06941442, -0.6431928, 0.003125909, 0.29008675, 0.017095389, 0.3754568, 0
207, 748863914, 0.7600513, -0.06896506, -0.6461827, 0.0037643223, -0.24128, 0.012461965, -0.46022797, 0
208, 748880581, 0.75761837, -0.068589285, -0.6490658, 0.00486875, 0.07641997, 0.079792, 0.2526722, 0
209, 748897248, 0.75490654, -0.06837478, -0.6522308, 0.0060111666, -0.188117, 0.05577048, -0.4879837, 0
210, 748913915, 0.75240564, -0.068544194, -0.6550872, 0.006978566, -0.27119765, 0.015095506, 0.07136917, 0
211, 748930582, 0.74960667, -0.068384156, -0.6582938, 0.007921884, -0.48419076, -0.007075694, 0.0056705475, 0
212, 748947249, 0.74737537, -0.06800202, -0.6608589, 0.0084594, -0.5122698, 0.0325417, 0.08678532, 0
213, 748963916, 0.7449133, -0.06735668, -0.66369337, 0.0088650305, -0.50060153, 0.030265443, -0.10134411, 0
214, 748980583, 0.7425908, -0.066800565, -0.6663386, 0.0094619645, -0.33107945, 0.007598658, -0.35746765, 0
215, 748997250, 0.7401544, -0.066024154, -0.66912055, 0.009489869, -0.36573336, 0.06440903, -0.17647266, 0
216, 749013917, 0.73830193, -0.065231696, -0.6712427, 0.009404523, -0.6067197, 0.17095469, -0.68306255, 0
217, 749030584, 0.73563755, -0.06394262, -0.67428756, 0.00922796, -0.6474634, 0.06353596, 0.5900688, 0
218, 749047251, 0.73323476, -0.061972942, -0.6770761, 0.009715811, -0.9721298, 0.16432938, -0.107619286, 0
219, 749063918, 0.7304394, -0.060603805, -0.6801986, 0.010732253, -0.8714511, 0.11937397, -0.25948524, 0
220, 749080585, 0.7272055, -0.05911476, -0.68376935, 0.0117141, -0.25861612, 0.0936578, -0.022758484, 0
221, 749097252, 0.72483975, -0.057768587, -0.68637794, 0.012479984, 0.15999058, 0.03452493, -0.09701824, 0
222, 749113919, 0.72240216, -0.056496285, -0.6890394, 0.0129782185, -0.36483842, 0.11822617, 0.044314384, 0
223, 749130586, 0.71958953, -0.05486776, -0.69208467, 0.014113702, -0.27486596, 0.07661658, -0.15660763, 0
224, 749147253, 0.71626997, -0.053680036, -0.6955871, 0.015318518, -0.722165, 0.20914093, 0.14934826, 0
225, 749163920, 0.7127387, -0.052602574, -0.6992627, 0.016377553, -0.8300909, 0.22380973, -0.01682949, 0
226, 749180587, 0.70906043, -0.05092707, -0.7030949, 0.017249329, -0.747641, 0.11728297, -0.6148596, 0
227, 749197254, 0.7051077, -0.049592376, -0.70713717, 0.017913649, -0.51921254, 0.24640279, 0.22014427, 0
228, 749213921, 0.7008984, -0.04804113, -0.7113954, 0.01871546, 0.06994391, 0.25098404, 0.13820267, 0
229, 749230588, 0.69634575, -0.04726797, -0.71587014, 0.019964008, -0.21454965, 0.3156088, 0.29574394, 0
230, 749247255, 0.6922963, -0.04652428, -0.7197989, 0.02123389, 0.2824332, 0.12311652, -0.13204956, 0
231, 749263922, 0.6881171, -0.046099972, -0.7237948, 0.022156259, -0.29435226, 0.10458058, -0.112794876, 0
232, 749280589, 0.68446225, -0.046323333, -0.72722715, 0.022507269, -0.2424445, 0.09154317, -0.30889416, 0
233, 749297256, 0.6803454, -0.04589814, -0.7311088, 0.022441637, -0.51259923, 0.049041845, -0.1261816, 0
234, 749313923, 0.6755702, -0.046047665, -0.73553365, 0.021795025, -0.2601007, 0.04940871, -0.754405, 0
235, 749330590, 0.6685394, -0.046112653, -0.7419551, 0.020772114, -0.28722802, -0.14403765, -0.89937496, 0
236, 749347257, 0.6593673, -0.0461941, -0.7501419, 0.019704398, -0.35735342, -0.1607423, -0.4396162, 0
237, 749363924, 0.64959645, -0.0462811, -0.7586123, 0.019754268, -0.31738392, -0.1485539, 0.08826065, 0
238, 749380591, 0.6397306, -0.046030328, -0.7669508, 0.02031542, -0.5412161, -0.0086315675, -0.15755272, 0
239, 749397258, 0.63011795, -0.045913804, -0.7748649, 0.020683827, -0.42860174, 0.16752441, -0.39729023, 0
240, 749413925, 0.61947197, -0.04551666, -0.7834168, 0.021003243, -0.19741425, -0.065530844, -0.8057604, 0
241, 749430592, 0.60886836, -0.04606249, -0.7916581, 0.020866305, -0.5555638, 0.5006302, 0.22333813, 0
242, 749447259, 0.5993191, -0.046797626, -0.79889286, 0.019925712, -0.33133784, 0.21726663, 0.008120537, 0
243, 749463926, 0.5907773, -0.047905594, -0.805193, 0.01875388, -0.2801024, 0.079624966, 0.17315006, 0
244, 749480593, 0.5835102, -0.04934981, -0.81040674, 0.017928671, -0.43079975, 0.36227554, -0.21690845, 0
245, 749497260, 0.5750849, -0.050720736, -0.81632406, 0.017886179, -0.10608238, 0.26500857, -0.087013245, 0
246, 749513927, 0.56731015, -0.052177247, -0.8216493, 0.018139021, -0.33515006, 0.35580346, -0.22022724, 0
247, 749530594, 0.5582037, -0.05370667, -0.8277477, 0.01891934, -0.016244922, 0.27595064, -0.50886345, 0
248, 749547261, 0.5490689, -0.055904873, -0.83366364, 0.020074526, -0.06708071, 0.18705675, -0.11277199, 0
249, 749563928, 0.5403539, -0.05776333, -0.8391852, 0.021202244, -0.17901108, 0.34322163, 0.11653805, 0
250, 749580595, 0.5314694, -0.06011009, -0.8446445, 0.02242441, -0.036350805, 0.17525408, -0.3825388, 0
251, 749597262, 0.5227731, -0.061956406, -0.8498976, 0.023322245, 0.06345935, 0.047053054, -0.37808895, 0
252, 749613929, 0.51538074, -0.06346914, -0.8542769, 0.023779212, 0.056741446, 0.29262504, 0.20764351, 0
253, 749630596, 0.50828654, -0.065621115, -0.8583226, 0.024922898, -0.072045825, 0.25277212, 0.25498772, 0
254, 749647263, 0.5018666, -0.0683635, -0.8618458, 0.026047224, 0.080894254, 0.017745225, -0.24836731, 0
255, 749663930, 0.49536133, -0.07062629, -0.8653664, 0.027750043, -0.0025471537, 0.25705162, 0.30487823, 0
256, 749680597, 0.48944166, -0.072562225, -0.86854094, 0.028605869, 0.08524248, 0.11716846, 0.23230553, 0
257, 749697264, 0.48385486, -0.07426151, -0.87148714, 0.02966449, 0.041094646, 0.14539297, 0.35568714, 0
258, 749713931, 0.4788468, -0.07564679, -0.874096, 0.030657561, 0.20466322, 0.12391014, -0.05911827, 0
259, 749730598, 0.4742435, -0.07700394, -0.87645465, 0.03147899, 0.037479546, 0.1378367, 0.20546913, 0
260, 749747265, 0.4704859, -0.07871646, -0.87830305, 0.032105163, 0.21567123, 0.0816689, 0.3831358, 0
261, 749763932, 0.46700835, -0.080210604, -0.88000715, 0.032513082, 0.10649633, 0.07473052, 0.28681278, 0
262, 749780599, 0.46392056, -0.081880905, -0.88147885, 0.03269178, 0.1509982, 0.09604544, 0.34500217, 0
263, 749797266, 0.46107525, -0.08329683, -0.8828365, 0.032726664, 0.14436345, 0.079521075, 0.1503563, 0
264, 749813933, 0.459127, -0.08461639, -0.8837281, 0.03266982, 0.17166734, 0.05987859, 0.19184017, 0
265, 749830600, 0.45769542, -0.08585665, -0.88435495, 0.032558557, 0.12348912, 0.076725796, 0.09248352, 0
266, 749847267, 0.45658657, -0.08698796, -0.88482124, 0.032457758, 0.105959445, 0.065709986, 0.1416626, 0
267, 749863934, 0.45575643, -0.08801371, -0.8851532, 0.032306343, 0.08961439, 0.050109453, 0.039198875, 0
268, 749880601, 0.45526215, -0.08895363, -0.88532186, 0.032080676, 0.12514356, 0.019163862, 0.01069355, 0
269, 749897268, 0.45510232, -0.089830056, -0.8853266, 0.031770386, 0.07442311, 0.056585573, 0.006638527, 0
270, 749913935, 0.45508388, -0.09070201, -0.88526064, 0.031395923, 0.04247506, 0.037681602, -0.11929226, 0
271, 749930602, 0.4554684, -0.091607556, -0.8849872, 0.030898029, 0.026709799, 0.038255665, -0.117489815, 0
272, 749947269, 0.45581722, -0.092439726, -0.884737, 0.030432647, -0.011755887, 0.060958326, -0.11064148, 0
273, 749963936, 0.45651728, -0.09324785, -0.8843084, 0.029926397, -0.030592218, 0.056267627, -0.13061714, 0
274, 749980603, 0.45751655, -0.09401917, -0.8837278, 0.029402817, 0.0071868356, 0.054959822, -0.19480324, 0
275, 749997270, 0.45843706, -0.09473366, -0.8831903, 0.028912075, -0.038927015, 0.07954044, -0.15322113, 0
276, 750013937, 0.45955703, -0.09548697, -0.8825451, 0.028350225, -0.08194342, 0.09260292, -0.096408844, 0
277, 750030604, 0.46052247, -0.09620311, -0.8819783, 0.027902093, -0.042496964, 0.07097536, -0.14564991, 0
278, 750047271, 0.4614508, -0.09687653, -0.88143194, 0.027498426, -0.13731027, 0.09180686, -0.18886185, 0
279, 750063938, 0.4624541, -0.09752527, -0.8808468, 0.027093217, -0.08905963, 0.08340062, -0.13252068, 0
280, 750080605, 0.4633118, -0.09810044, -0.8803412, 0.026800025, -0.13707021, 0.04724385, -0.22640419, 0
281, 750097272, 0.46416304, -0.098549455, -0.87984645, 0.02666618, -0.20928949, 0.0617314, -0.23108768, 0
282, 750113939, 0.46509454, -0.09882007, -0.8793207, 0.026777353, -0.24179229, 0.047308724, -0.21899605, 0
283, 750130606, 0.46629527, -0.09889988, -0.87866575, 0.02709748, -0.25431395, 0.050206568, -0.23404312, 0
284, 750147273, 0.46737623, -0.09893112, -0.878078, 0.027415646, -0.21480533, 0.07522719, -0.2189703, 0
285, 750163940, 0.46862006, -0.09904446, -0.8773973, 0.027559465, -0.24774623, 0.100221954, -0.27938747, 0
286, 750180607, 0.46969977, -0.09926318, -0.8767985, 0.027447343, -0.213399, 0.09401458, -0.2526121, 0
287, 750197274, 0.47078574, -0.0996258, -0.8761844, 0.027137537, -0.2859848, 0.08960735, -0.2747221, 0
288, 750213941, 0.47189385, -0.10001127, -0.87555635, 0.026746403, -0.30665487, 0.068969056, -0.31299496, 0
289, 750230608, 0.47297692, -0.1003235, -0.8749441, 0.026477287, -0.3208466, 0.036438927, -0.28566933, 0
290, 750247275, 0.4741219, -0.10053387, -0.8743043, 0.026339056, -0.34931052, 0.018755028, -0.31228352, 0
291, 750263942, 0.4752039, -0.10065558, -0.87370366, 0.026302548, -0.3506565, 0.017137771, -0.27601337, 0
292, 750280609, 0.47627023, -0.100745946, -0.87311333, 0.02627136, -0.34380585, 0.0031542708, -0.3065176, 0
293, 750297276, 0.47728527, -0.100811996, -0.87255156, 0.02626084, -0.35639945, 0.045615166, -0.28612137, 0
294, 750313943, 0.4783409, -0.10083264, -0.87196934, 0.026310656, -0.3429395, 0.053713795, -0.28168488, 0
295, 750330610, 0.4792787, -0.100815676, -0.8714535, 0.026403546, -0.32947686, 0.08971089, -0.29471684, 0
296, 750347277, 0.48015603, -0.100794904, -0.87097013, 0.02648772, -0.3069928, 0.09618243, -0.29247665, 0
297, 750363944, 0.48094612, -0.10076115, -0.870536, 0.026555816, -0.31968433, 0.108268194, -0.31721687, 0
298, 750380611, 0.48160055, -0.10072447, -0.87017685, 0.026606413, -0.32118723, 0.10485194, -0.2865324, 0
299, 750397278, 0.4821135, -0.10069371, -0.8698952, 0.026643354, -0.27187625, 0.12954676, -0.26985455, 0
300, 750413945, 0.48253015, -0.10067036, -0.8696668, 0.026647625, -0.28221014, 0.15115717, -0.26050663, 0
301, 750430612, 0.48287407, -0.100662254, -0.8694768, 0.026645573, -0.294983, 0.16161425, -0.2463789, 0
302, 750447279, 0.48318925, -0.10063418, -0.869303, 0.026705356, -0.289633, 0.1554684, -0.25000858, 0
303, 750463946, 0.4834442, -0.10059625, -0.8691631, 0.026792612, -0.23706812, 0.120570295, -0.21992111, 0
304, 750480613, 0.4836718, -0.10056277, -0.8690388, 0.026843278, -0.24968363, 0.12907979, -0.2194395, 0
305, 750497280, 0.48414305, -0.10056176, -0.86877596, 0.026853181, -0.27174214, 0.12019448, -0.21270466, 0
306, 750513947, 0.48486868, -0.10054953, -0.8683744, 0.026798995, -0.24221338, 0.14102729, -0.2102871, 0
307, 750530614, 0.4855568, -0.1005614, -0.86799127, 0.026709465, -0.21233553, 0.15060705, -0.21236515, 0
308, 750547281, 0.486305, -0.10061884, -0.86757076, 0.026544916, -0.18570842, 0.15564632, -0.16231251, 0
309, 750563948, 0.48716205, -0.10070068, -0.8670864, 0.026340812, -0.19503607, 0.11888165, -0.15837002, 0
310, 750580615, 0.4883077, -0.1008003, -0.86643606, 0.02614767, -0.13024324, 0.110984854, -0.058534622, 0
311, 750597282, 0.4897311, -0.10087776, -0.86562836, 0.025980003, -0.118768975, 0.106846794, -0.11809826, 0
312, 750613949, 0.4914442, -0.100998335, -0.864649, 0.025773922, -0.06532747, 0.09375279, -0.1126585, 0
313, 750630616, 0.4932895, -0.10117193, -0.8635853, 0.025502877, -0.06555143, 0.066277176, -0.10491085, 0
314, 750647283, 0.49556133, -0.10136647, -0.8622685, 0.02523767, -0.097141415, 0.04983333, -0.041683197, 0
315, 750663950, 0.4984182, -0.10147731, -0.8606124, 0.025064869, -0.09918432, 0.050036114, 0.007080078, 0
316, 750680617, 0.5017456, -0.10149289, -0.8586765, 0.025005236, -0.12657449, 0.11834631, 0.0011892319, 0
317, 750697284, 0.50544107, -0.1014052, -0.8565158, 0.025039399, -0.07704984, 0.2125632, 0.038414, 0
318, 750713951, 0.50965333, -0.10116811, -0.8540394, 0.025209403, -0.03922697, 0.20753826, 0.10334873, 0
319, 750730618, 0.51422745, -0.1007868, -0.85132957, 0.02549986, 0.020910531, 0.21787344, -0.02340889, 0
320, 750747285, 0.51936126, -0.10025549, -0.8482585, 0.025890581, -0.025283786, 0.18881743, -0.032610893, 0
321, 750763952, 0.52463186, -0.099728085, -0.8450608, 0.026233671, 0.028563168, 0.21291126, -0.02308464, 0
322, 750780619, 0.5302139, -0.099222556, -0.8416219, 0.02648048, -0.011313778, 0.159129, -0.010692596, 0
323, 750797286, 0.53591055, -0.09874961, -0.8380556, 0.026672604, -0.001019219, 0.11050623, 0.05245781, 0
324, 750813953, 0.5415464, -0.098204926, -0.83448, 0.026954643, 0.018851083, 0.13958247, -0.0068120956, 0
325, 750830620, 0.54731125, -0.097583994, -0.8307746, 0.027227646, -0.022221211, 0.1297455, 0.057370186, 0
326, 750847287, 0.5532253, -0.09693656, -0.82691544, 0.027497105, -0.042176895, 0.16178234, -0.08000851, 0
327, 750863954, 0.55909055, -0.096318185, -0.82302976, 0.027618362, -0.06902482, 0.11779831, -0.0269413, 0
328, 750880621, 0.56499237, -0.09562558, -0.81906265, 0.027856447, 0.018850636, 0.08849381, -0.04564476, 0
329, 750897288, 0.5706471, -0.09483027, -0.81521446, 0.02818975, 0.012884628, 0.08081904, -0.08461094, 0
330, 750913955, 0.5762353, -0.0940912, -0.8113502, 0.028470721, -0.023976235, 0.056019276, -0.045036316, 0
331, 750930622, 0.58160734, -0.09337257, -0.8075828, 0.028718704, 0.14571346, 0.058485016, -0.021885872, 0
332, 750947289, 0.5859282, -0.09277201, -0.80451363, 0.028977135, 0.13665538, 0.071921244, -0.028403282, 0
333, 750963956, 0.5899081, -0.09238787, -0.80164105, 0.029063074, -0.016516713, 0.12080062, -0.016328812, 0
334, 750980623, 0.59391665, -0.09206192, -0.7987156, 0.029000735, -0.03187384, 0.13604456, 0.0041399, 0
335, 750997290, 0.59796596, -0.09173025, -0.79573095, 0.028892612, -0.013073273, 0.10823928, -0.010298729, 0
336, 751013957, 0.6020073, -0.0914001, -0.7927192, 0.028803661, -0.031904686, 0.10123555, -0.024017334, 0
337, 751030624, 0.6060803, -0.091084525, -0.78965014, 0.02868594, -0.11362952, 0.09484071, -0.051605225, 0
338, 751047291, 0.610082, -0.09077816, -0.78660536, 0.028486926, -0.19405887, 0.1303012, -0.11331177, 0
339, 751063958, 0.6140813, -0.090429954, -0.7835349, 0.02828319, -0.22526395, 0.12827425, -0.14966488, 0
340, 751080625, 0.61822176, -0.090090305, -0.7803203, 0.028035428, -0.30430707, 0.1490913, -0.14903831, 0
341, 751097292, 0.62250173, -0.08974245, -0.776959, 0.027801404, -0.3079347, 0.14105529, -0.1691351, 0
342, 751113959, 0.6267864, -0.089341305, -0.77356094, 0.027575277, -0.34244198, 0.12004638, -0.1775999, 0
343, 751130626, 0.63100386, -0.08891982, -0.77018183, 0.027341193, -0.3838826, 0.12937298, -0.20096493, 0
344, 751147293, 0.6351265, -0.088495865, -0.766845, 0.027054684, -0.42617396, 0.15363175, -0.22107601, 0
345, 751163960, 0.6391511, -0.088088475, -0.76355296, 0.026705861, -0.4080837, 0.15660606, -0.19321918, 0
346, 751180627, 0.6430822, -0.08771115, -0.760302, 0.026321398, -0.44504827, 0.17685536, -0.19976902, 0
347, 751197294, 0.64693433, -0.08735267, -0.7570819, 0.025930949, -0.43085518, 0.15591037, -0.18974781, 0
348, 751213961, 0.6506904, -0.08698622, -0.7539118, 0.025550267, -0.45217922, 0.1513552, -0.17041492, 0
349, 751230628, 0.65433836, -0.08655193, -0.75080895, 0.025221942, -0.45487434, 0.12644142, -0.15671444, 0
350, 751247295, 0.6578277, -0.086099766, -0.74781585, 0.02492787, -0.42897323, 0.108519, -0.14504623, 0
351, 751263962, 0.6611828, -0.08565857, -0.7449113, 0.024641484, -0.40903944, 0.071787275, -0.14228058, 0
352, 751280629, 0.66445965, -0.085239716, -0.7420493, 0.024303153, -0.4060636, 0.077371694, -0.14241123, 0
353, 751297296, 0.66769, -0.08479132, -0.7392056, 0.023993928, -0.39520308, 0.058416117, -0.13145065, 0
354, 751313963, 0.67086154, -0.08430824, -0.73639095, 0.023777977, -0.35191265, 0.03496771, -0.12924194, 0
355, 751330630, 0.67397654, -0.08380769, -0.73360455, 0.023584582, -0.32618272, -0.009539533, -0.113554955, 0
356, 751347297, 0.6770398, -0.08323854, -0.7308483, 0.023437982, -0.33576384, -0.0277298, -0.07785702, 0
357, 751363964, 0.68000317, -0.08258792, -0.7281679, 0.02338169, -0.3366083, -0.03429197, -0.067647934, 0
358, 751380631, 0.6828735, -0.0818787, -0.72555727, 0.023381203, -0.37685, -0.04427043, -0.12571812, 0
359, 751397298, 0.68570423, -0.08107454, -0.72297084, 0.023451976, -0.3964172, -0.047525335, -0.11783886, 0
360, 751413965, 0.68847185, -0.080229886, -0.7204288, 0.023497844, -0.36927068, -0.015069523, -0.1151371, 0
361, 751430632, 0.69116604, -0.07937846, -0.7179361, 0.023589827, -0.319818, 0.046718847, -0.083589554, 0
362, 751447299, 0.6938116, -0.078610204, -0.715462, 0.023667363, -0.31149435, 0.12693278, -0.079304695, 0
363, 751463966, 0.6964233, -0.077885404, -0.7129976, 0.023724325, -0.36017147, 0.19234566, -0.08923721, 0
364, 751480633, 0.6990415, -0.07719018, -0.71050364, 0.023818325, -0.4049335, 0.21182144, -0.09101868, 0
365, 751497300, 0.7016662, -0.076488376, -0.7079831, 0.023965204, -0.29930174, 0.16412011, -0.077528, 0
366, 751513967, 0.7042419, -0.075785734, -0.7054924, 0.024092793, -0.2848078, 0.1261403, -0.10697746, 0
367, 751530634, 0.7067313, -0.075107194, -0.703068, 0.024191529, -0.43008408, 0.08712077, -0.1746378, 0
368, 751547301, 0.7091292, -0.074463844, -0.70071584, 0.024258899, -0.50157875, 0.04697717, -0.3499794, 0
369, 751563968, 0.7113367, -0.073795386, -0.6985426, 0.02434515, -0.60255873, 0.01837623, -0.37016106, 0
370, 751580635, 0.7132168, -0.07306077, -0.6966958, 0.024476081, -0.47388548, 0.06377233, -0.27927494, 0
371, 751597302, 0.7147882, -0.07236461, -0.69515187, 0.024600923, -0.43294415, 0.13142031, -0.2607479, 0
372, 751613969, 0.71622026, -0.07175478, -0.6937356, 0.024713334, -0.48011342, 0.25363442, -0.07349777, 0
373, 751630636, 0.71752155, -0.071261756, -0.69243705, 0.024811741, -0.41889054, 0.31894988, -0.03808403, 0
374, 751647303, 0.7187439, -0.070895575, -0.691201, 0.024943428, -0.46570802, 0.35123664, -0.14354134, 0
375, 751663970, 0.71986914, -0.07060032, -0.6900546, 0.025074657, -0.4555042, 0.23550065, -0.15470314, 0
376, 751680637, 0.720925, -0.070398144, -0.68897015, 0.025134763, -0.564604, 0.14031029, -0.19227982, 0
377, 751697304, 0.72190773, -0.07017431, -0.68796206, 0.025164094, -0.61214834, 0.09874666, -0.13711548, 0
378, 751713971, 0.72280854, -0.069989, -0.68703556, 0.025131656, -0.597683, 0.09413349, -0.21957684, 0
379, 751730638, 0.7236945, -0.06987788, -0.6861182, 0.025008224, -0.61116713, 0.10644894, -0.11940098, 0
380, 751747305, 0.7246023, -0.06990722, -0.6851648, 0.024774794, -0.54510516, 0.14154634, -0.09635353, 0
381, 751763972, 0.72564656, -0.069973126, -0.68406194, 0.02450202, -0.46680188, 0.10275354, -0.012126923, 0
382, 751780639, 0.7268247, -0.0700587, -0.68281204, 0.024199456, -0.4565963, 0.088257276, -0.09348774, 0
383, 751797306, 0.7281009, -0.070235446, -0.68144685, 0.023801237, -0.55774575, 0.0927534, -0.15700626, 0
384, 751813973, 0.7292363, -0.07044418, -0.68022513, 0.02336939, -0.6700771, 0.11396079, -0.0065193176, 0
385, 751830640, 0.73015505, -0.07069272, -0.6792281, 0.022921698, -0.71746945, 0.15289521, 0.055467606, 0
386, 751847307, 0.73064584, -0.07109736, -0.67867464, 0.022418195, -0.6445327, 0.15912753, 0.118927956, 0
387, 751863974, 0.7307038, -0.07170756, -0.6785653, 0.0218934, -0.50747544, 0.121274054, 0.30305195, 0
388, 751880641, 0.73044914, -0.07249877, -0.6787739, 0.021315431, -0.3478711, 0.006868274, 0.3516264, 0
389, 751897308, 0.7300201, -0.073441334, -0.6791533, 0.02068804, -0.27787176, -0.029767176, 0.25863743, 0
390, 751913975, 0.72955734, -0.07427143, -0.6795826, 0.019938102, -0.2925409, -0.09119636, 0.6107626, 0
391, 751930642, 0.72906935, -0.07494732, -0.68005586, 0.019100564, -0.30235937, -0.04192818, 0.4191141, 0
392, 751947309, 0.7288293, -0.0754344, -0.68028486, 0.018169167, -0.19221756, 0.014925804, 0.3388586, 0
393, 751963976, 0.7295994, -0.07588524, -0.6794294, 0.01738045, -0.060707908, 0.15746823, -0.7173748, 0
394, 751980643, 0.7306829, -0.07682143, -0.67816174, 0.017256323, -0.0021305254, 0.17722906, 0.14409447, 0
395, 751997310, 0.73195523, -0.07741303, -0.67673165, 0.016830733, -0.10776498, 0.21419327, -1.3141966, 0
396, 752013977, 0.7335863, -0.07767333, -0.67494386, 0.016390264, -0.02372456, 0.023932593, -0.3479395, 0
397, 752030644, 0.7353477, -0.0775873, -0.6730421, 0.016079739, 0.09453168, -0.13106067, -0.10076141, 0
398, 752047311, 0.73730737, -0.07716495, -0.6709466, 0.015952026, -0.20182729, -0.04799002, -0.012399673, 0
399, 752063978, 0.7398302, -0.07663418, -0.6682246, 0.015951702, 0.17706965, 0.0602663, 0.3760996, 0
400, 752080645, 0.74316674, -0.07631855, -0.6645248, 0.016895108, 0.06359346, 0.24552387, 0.1896286, 0
401, 752097312, 0.7462521, -0.076349154, -0.6610064, 0.018683363, 0.15790921, 0.4318041, 0.7426443, 0
402, 752113979, 0.7493072, -0.07784051, -0.65722555, 0.02311718, -0.06746381, 0.5462583, 1.6350212, 0
403, 752130646, 0.7511225, -0.08144852, -0.6545088, 0.02827828, -0.3675626, 0.5102253, 1.5741682, 0
404, 752147313, 0.75221086, -0.089508794, -0.65170723, 0.038009245, 0.1750473, 0.96754557, 3.2101803, 0
405, 752163980, 0.76000094, -0.09657236, -0.6412615, 0.04308292, 4.45031, -2.1603389, 9.229624, 0
406, 752180647, 0.7840736, -0.092100106, -0.61250675, 0.039771583, 7.6866884, -1.7190619, 1.674676, 0
407, 752197314, 0.79741627, -0.08619639, -0.5959254, 0.039630752, -1.9323156, 0.12924436, -2.1648765, 0
408, 752213981, 0.8056051, -0.08485651, -0.5851376, 0.037602834, 0.19365029, -0.3538627, -0.23578167, 0
409, 752230648, 0.8122865, -0.0833534, -0.576085, 0.037001584, 1.1169559, -0.386483, -0.41904545, 0
410, 752247315, 0.8184762, -0.08158722, -0.5675467, 0.03648768, 1.2971239, 0.047995944, 0.09091854, 0
411, 752263982, 0.8247139, -0.079809874, -0.5587309, 0.03602121, 0.6089351, 0.06857674, 0.48055363, 0
412, 752280649, 0.83112884, -0.078248404, -0.5494091, 0.035377074, 0.71914536, -0.1984709, 0.99723625, 0
413, 752297316, 0.83791167, -0.0763885, -0.5393099, 0.034840535, 0.11039126, -0.12804471, 1.2803202, 0
414, 752313983, 0.8441483, -0.07449125, -0.5297986, 0.034330234, 0.28257492, -0.14868791, 1.3808947, 0
415, 752330650, 0.8500587, -0.07259081, -0.52057385, 0.03367294, 0.15474741, -0.36096874, 1.4608021, 0
416, 752347317, 0.8557771, -0.07062414, -0.51143676, 0.033021882, 0.37856388, -0.4444106, 1.3606281, 0
417, 752363984, 0.86151594, -0.0682162, -0.50203645, 0.033112988, -0.15610369, -0.03542384, 1.5400114, 0
418, 752380651, 0.8668837, -0.06558759, -0.49302605, 0.033712298, -0.624172, 0.3042643, 1.661336, 0
419, 752397318, 0.8716458, -0.06318112, -0.48484164, 0.03420869, -0.7224435, 0.42950174, 1.4531584, 0
420, 752413985, 0.8757331, -0.061223287, -0.47767988, 0.0341389, -0.8224204, 0.36921462, 1.2513351, 0
421, 752430652, 0.8792071, -0.059919696, -0.47148624, 0.033251315, -0.7928724, 0.22268286, 1.1122065, 0
422, 752447319, 0.88210005, -0.059010282, -0.46624938, 0.032077976, -0.7506701, 0.17657161, 1.0184155, 0
423, 752463986, 0.88450706, -0.058249876, -0.46182293, 0.031208726, -0.8269461, 0.2159136, 0.95672417, 0
424, 752480653, 0.8864302, -0.057775132, -0.4582108, 0.030770026, -0.5792664, 0.34581345, 0.9090185, 0
425, 752497320, 0.88802373, -0.05761934, -0.45513603, 0.030740736, -0.5403256, 0.5108507, 0.8533602, 0
426, 752513987, 0.88924676, -0.057772048, -0.4526997, 0.031077662, -0.5156949, 0.5436, 0.8132191, 0
427, 752530654, 0.89017797, -0.05823071, -0.4507738, 0.031553805, -0.35884067, 0.43098077, 0.8006096, 0
428, 752547321, 0.8910022, -0.05900141, -0.44902146, 0.03184472, -0.37687147, 0.2887041, 0.9106045, 0
429, 752563988, 0.891713, -0.05983544, -0.4474978, 0.031837597, -0.50683486, 0.17874505, 0.8467035, 0
430, 752580655, 0.8922934, -0.060548812, -0.44626513, 0.031530637, -0.46611795, 0.19150808, 0.8337879, 0
431, 752597322, 0.89282256, -0.06111485, -0.44516212, 0.031045977, -0.37856567, 0.15188077, 0.79693794, 0
432, 752613989, 0.89322686, -0.061614, -0.44433263, 0.03029938, -0.44787258, 0.14350018, 0.7360897, 0
433, 752630656, 0.89351124, -0.06213231, -0.443758, 0.029259667, -0.4232115, 0.15239593, 0.58858013, 0
434, 752647323, 0.8936248, -0.06268104, -0.44352728, 0.028095894, -0.48984697, 0.1712618, 0.5468292, 0
435, 752663990, 0.89356905, -0.06328883, -0.4436198, 0.027027259, -0.60750914, 0.25132367, 0.5233841, 0
436, 752680657, 0.89337456, -0.06395786, -0.44397146, 0.026091905, -0.5191875, 0.22183917, 0.38867188, 0
437, 752697324, 0.89300555, -0.06467172, -0.44465834, 0.025255218, -0.60566086, 0.18857269, 0.24030781, 0
438, 752713991, 0.8924269, -0.06573641, -0.445711, 0.024386939, -0.5244861, 0.06636821, 0.0047311783, 0
439, 752730658, 0.8917471, -0.06712694, -0.44691166, 0.02347721, -0.46862754, 0.004722829, -0.17684364, 0
440, 752747325, 0.8908981, -0.06859654, -0.44842777, 0.022536945, -0.5991475, 0.01091045, -0.43652248, 0
441, 752763992, 0.8897623, -0.07016514, -0.45048395, 0.021546178, -0.506032, 0.14117558, -0.70265865, 0
442, 752780659, 0.88836056, -0.07182484, -0.4530323, 0.020459939, -0.38386807, 0.2704548, -0.8940296, 0
443, 752797326, 0.8866976, -0.07349677, -0.45605773, 0.019420708, -0.34137782, 0.26383832, -0.99811745, 0
444, 752813993, 0.88469017, -0.07528531, -0.45969793, 0.018265203, -0.35527587, 0.11933351, -1.059823, 0
445, 752830660, 0.88241917, -0.077143826, -0.46378008, 0.017137207, -0.35079533, -0.102328815, -1.124279, 0
446, 752847327, 0.87986606, -0.07908247, -0.46832523, 0.015912818, -0.34006, -0.36459193, -1.1253481, 0
447, 752863994, 0.87705535, -0.080888785, -0.47330078, 0.01474804, -0.31078336, -0.5534293, -1.1305256, 0
448, 752880661, 0.87395656, -0.08253463, -0.47874472, 0.013848057, -0.13560084, -0.65390086, -1.2788572, 0
449, 752897328, 0.87067205, -0.08382903, -0.48448262, 0.01338915, -0.14884935, -0.55888873, -1.5868454, 0
450, 752913995, 0.86720014, -0.084876426, -0.49048707, 0.013510059, -0.21261066, -0.57559705, -2.0647345, 0
451, 752930662, 0.8635933, -0.08583717, -0.49663183, 0.01398571, -0.32716754, -0.5333643, -2.529307, 0
452, 752947329, 0.85939693, -0.0869267, -0.503641, 0.015049995, -0.4616289, -0.47002098, -2.9448886, 0
453, 752963996, 0.8548495, -0.088078484, -0.5110856, 0.01631407, -0.30123556, -0.4648823, -2.9976115, 0
454, 752980663, 0.8500233, -0.08927491, -0.51882696, 0.017581392, -0.08512536, -0.44099307, -2.9400568, 0
455, 752997330, 0.84481585, -0.090505466, -0.52700955, 0.018867131, 0.22587325, -0.38061568, -2.4775524, 0
456, 753013997, 0.8395201, -0.09147786, -0.53519434, 0.020122735, 0.38953325, -0.27651548, -1.6717682, 0
457, 753030664, 0.8339469, -0.09206379, -0.5436932, 0.021323333, 0.8046274, -0.16476922, -0.79329586, 0
458, 753047331, 0.82839644, -0.09198125, -0.55208206, 0.02246039, 0.8901354, -0.13810933, 0.23466969, 0
459, 753063998, 0.82324284, -0.09104822, -0.55984306, 0.023604764, 0.9638062, -0.12268168, 0.692008, 0
460, 753080665, 0.81873226, -0.08933151, -0.5666395, 0.024847504, 0.81945705, -0.28947386, 0.74007225, 0
461, 753097332, 0.8148383, -0.0871019, -0.5725078, 0.026210172, 0.69183385, -0.4951057, 0.44478798, 0
462, 753113999, 0.8111227, -0.08445218, -0.5780681, 0.028024541, 0.36901632, -0.55136365, 0.03952408, 0
463, 753130666, 0.80771434, -0.08161891, -0.58312297, 0.0300604, -0.1725082, -0.45515355, -0.4166479, 0
464, 753147333, 0.80416274, -0.07865774, -0.5882838, 0.032521486, -0.24359739, -0.3335196, -0.8912525, 0
465, 753164000, 0.8008085, -0.075626686, -0.5930745, 0.03534284, -0.36082634, -0.21318476, -1.1301508, 0
466, 753180667, 0.7972223, -0.07273265, -0.59805644, 0.03841053, -0.6386769, -0.1102728, -1.1583567, 0
467, 753197334, 0.79337364, -0.06999461, -0.6032704, 0.041522402, -0.61713046, -0.05336981, -1.2489386, 0
468, 753214001, 0.7902569, -0.06759178, -0.60741156, 0.044460274, -1.1538835, 0.20482531, -1.5726395, 0
469, 753230668, 0.78719175, -0.06523996, -0.6114478, 0.0469548, -1.456731, 0.28722692, -1.0938339, 0
470, 753247335, 0.78425, -0.06313143, -0.6152856, 0.048887175, -1.4808992, 0.36056253, -0.7342396, 0
471, 753264002, 0.7812087, -0.061251212, -0.61920476, 0.050466333, -1.3683271, 0.44039002, -0.4988842, 0
472, 753280669, 0.77803004, -0.05948309, -0.62324625, 0.0519175, -1.3788188, 0.32547778, -0.19006157, 0
473, 753297336, 0.7752257, -0.057703227, -0.6267958, 0.05312685, -1.4536226, 0.17063901, -0.29540253, 0
474, 753314003, 0.7724404, -0.055945117, -0.6302739, 0.05441583, -1.4228519, 0.01997376, -0.56771564, 0
475, 753330670, 0.76952, -0.054004766, -0.6338799, 0.055848084, -1.5034281, -0.06265376, -0.70230865, 0
476, 753347337, 0.7663935, -0.05194112, -0.6376799, 0.057511456, -1.2759465, -0.1877781, -0.42790508, 0
477, 753364004, 0.76349074, -0.049774572, -0.6411496, 0.059427682, -1.074029, -0.20887579, -0.029018402, 0
478, 753380671, 0.76099706, -0.04752559, -0.6440684, 0.06165035, -1.1094906, -0.11072988, 0.1804285, 0
479, 753397338, 0.75880504, -0.045458753, -0.64656526, 0.0640474, -0.98857546, -0.017864916, 0.33053303, 0
480, 753414005, 0.7568708, -0.04361682, -0.64872575, 0.0663277, -0.9452296, 0.086467355, 0.45432568, 0
481, 753430672, 0.7550272, -0.0419689, -0.6507709, 0.06833777, -1.0948192, 0.22182389, 0.8040943, 0
482, 753447339, 0.75336844, -0.040402845, -0.6525993, 0.07012645, -0.9140808, 0.32364765, 1.2742338, 0
483, 753464006, 0.75219816, -0.038931496, -0.65386087, 0.071751416, -0.82370156, 0.34683365, 1.497283, 0
484, 753480673, 0.75169754, -0.03752661, -0.65436554, 0.07313325, -0.7264345, 0.26257256, 1.3290071, 0
485, 753497340, 0.7518585, -0.03630611, -0.6541164, 0.074315, -0.6572635, 0.13052602, 0.8544779, 0
486, 753514007, 0.75205266, -0.035189774, -0.6538298, 0.07540064, -1.0058204, 0.08299631, 0.10026455, 0
487, 753530674, 0.75198156, -0.03397931, -0.65384394, 0.07653387, -0.883321, 0.011867672, -0.26085472, 0
488, 753547341, 0.75176543, -0.032572366, -0.65399504, 0.07796312, -0.760641, -0.14902547, -0.55268764, 0
489, 753564008, 0.75154155, -0.031075843, -0.65413487, 0.07954399, -0.73694366, -0.21460289, -0.6024637, 0
490, 753580675, 0.75143045, -0.029551696, -0.65414, 0.08111653, -0.79566944, -0.23066875, -0.403924, 0
491, 753597342, 0.7516401, -0.027858842, -0.65377533, 0.08269883, -0.882245, -0.2349452, -0.17382145, 0
492, 753614009, 0.75200486, -0.025938222, -0.65321255, 0.084436625, -0.85556555, -0.19485454, 0.05827236, 0
493, 753630676, 0.75210255, -0.024047973, -0.6529365, 0.08624221, -0.61160654, -0.06653376, 0.11723423, 0
494, 753647343, 0.7517079, -0.022271823, -0.653207, 0.08809041, -0.58872014, -0.056318015, 0.15201092, 0
495, 753664010, 0.7511113, -0.020623697, -0.65369433, 0.0899468, -0.59781265, 0.01830645, 0.18485832, 0
496, 753680677, 0.7508199, -0.019033436, -0.6538065, 0.091894135, -0.6526243, 0.12453709, 0.113464355, 0
497, 753697344, 0.7509911, -0.017443342, -0.6533681, 0.09390597, -0.57304835, 0.18421018, 0.027161598, 0
498, 753714011, 0.7512898, -0.01576312, -0.6527829, 0.09586369, -0.4356929, 0.24295138, -0.03301716, 0
499, 753730678, 0.75138247, -0.014110106, -0.6524604, 0.09757546, -0.39009002, 0.25390765, 0.053156853, 0
500, 753747345, 0.7513598, -0.0126430085, -0.6523047, 0.09898063, -0.36860013, 0.29998103, 0.15342045, 0
501, 753764012, 0.751497, -0.011346204, -0.65199304, 0.10014376, -0.3570691, 0.36453807, 0.20801258, 0
502, 753780679, 0.75180805, -0.010153573, -0.6515089, 0.10108372, -0.35214153, 0.4498544, 0.2743988, 0
503, 753797346, 0.7522913, -0.009005413, -0.65084136, 0.10189385, -0.19551304, 0.48491108, 0.28571033, 0
504, 753814013, 0.7529402, -0.007939022, -0.6499938, 0.10259945, -0.30698475, 0.47426778, 0.20484161, 0
