sep=,
DeviceTag:,Xsens DOT 2,,,,,,,,,,,,,,,,,
FirmwareVersion:,3.0.0,,,,,,,,,,,,,,,,,
AppVersion:,2023.6.1,,,,,,,,,,,,,,,,,
SyncStatus:,Un-synced,,,,,,,,,,,,,,,,,
OutputRate:,60Hz,,,,,,,,,,,,,,,,,
FilterProfile:,General,,,,,,,,,,,,,,,,,
Measurement Mode:,Sensor fusion Mode - Extended (Quaternion),,,,,,,,,,,,,,,,,
StartTime:,2024-03-15 15:49:47.560 +0530,,,,,,,,,,,,,,,,,
 2024,,,,,,,,,,,,,,,,,,,

PacketCounter,SampleTimeFine,Quat_W,Quat_X,Quat_Y,Quat_Z,FreeAcc_X,FreeAcc_Y,FreeAcc_Z,Status
1, 732191783, 0.07060001, -0.7685818, -0.10473843, -0.6271581, -0.044075567, 0.00765476, 0.17120457, 0
2, 732208450, 0.07106944, -0.76876664, -0.104912356, -0.6268497, -0.059699897, -0.016727375, 0.15223408, 0
3, 732225117, 0.07106005, -0.7692338, -0.1047913, -0.6262976, -0.061946545, -0.04867045, 0.14738369, 0
4, 732241784, 0.07049754, -0.76978636, -0.10443915, -0.625741, -0.087978125, -0.063347876, 0.14138508, 0
5, 732258451, 0.07016917, -0.77028966, -0.1045581, -0.6251383, -0.05469144, -0.04220366, 0.14270401, 0
6, 732275118, 0.06987629, -0.77063715, -0.10457172, -0.62474036, -0.061230898, -0.04334503, 0.1613102, 0
7, 732291785, 0.06969074, -0.7708624, -0.10457471, -0.6244827, -0.010737094, -0.026130117, 0.13303852, 0
8, 732308452, 0.06935808, -0.7709908, -0.104303695, -0.6244066, 0.037106022, -0.021181429, 0.10513973, 0
9, 732325119, 0.069175184, -0.7710149, -0.10414566, -0.62442344, 0.007540042, -0.017500505, 0.19302082, 0
10, 732341786, 0.069211125, -0.7710044, -0.104175515, -0.6244274, -0.052591216, -0.029776508, 0.18343735, 0
11, 732358453, 0.06940314, -0.7709881, -0.10434506, -0.6243978, -0.06250244, 1.5103888E-4, 0.14325142, 0
12, 732375120, 0.069355324, -0.7710156, -0.10416301, -0.6243997, -0.059256457, -0.0045817923, 0.105526924, 0
13, 732391787, 0.06937526, -0.7710009, -0.10405323, -0.6244339, -0.0571207, -0.0012778236, 0.14483643, 0
14, 732408454, 0.06937489, -0.7709738, -0.10387626, -0.624497, -0.06508234, 0.011236778, 0.14187717, 0
15, 732425121, 0.06947322, -0.77094215, -0.103780635, -0.62454087, -0.040893804, -0.006076982, 0.13824272, 0
16, 732441788, 0.06957577, -0.77089316, -0.10368092, -0.6246066, -0.037664175, 0.0011167824, 0.15000916, 0
17, 732458455, 0.069664076, -0.7708322, -0.10359324, -0.62468654, -0.05146467, -0.0064823227, 0.13982868, 0
18, 732475122, 0.069882914, -0.7707674, -0.10365983, -0.624731, -0.07250974, -0.011493316, 0.14743233, 0
19, 732491789, 0.07006517, -0.7707294, -0.1036805, -0.624754, -0.07553743, -0.021397399, 0.12811184, 0
20, 732508456, 0.070142984, -0.77072453, -0.10362275, -0.6247609, -0.09328566, -0.027831666, 0.13859272, 0
21, 732525123, 0.07012585, -0.7707194, -0.10348702, -0.62479156, -0.10026128, -0.03754621, 0.16094398, 0
22, 732541790, 0.07011054, -0.7707253, -0.10331493, -0.62481457, -0.09782652, -0.022159632, 0.14431286, 0
23, 732558457, 0.07020042, -0.7707156, -0.10323592, -0.6248294, -0.103917345, -0.029499296, 0.12184715, 0
24, 732575124, 0.07045487, -0.7706653, -0.10334764, -0.6248445, -0.08440536, -0.059924103, 0.14624119, 0
25, 732591791, 0.07059008, -0.77061945, -0.10334051, -0.6248869, -0.08193094, -0.063350335, 0.15734005, 0
26, 732608458, 0.0705889, -0.770581, -0.103171095, -0.6249623, -0.10240261, -0.07419445, 0.16439629, 0
27, 732625125, 0.07072341, -0.7705186, -0.103112325, -0.6250338, -0.1117847, -0.04757423, 0.11577129, 0
28, 732641792, 0.07087823, -0.7704869, -0.10310131, -0.62505716, -0.109235, -0.04164281, 0.117957115, 0
29, 732658459, 0.07097358, -0.7705039, -0.1030286, -0.62503743, -0.12508577, -0.026840106, 0.13877392, 0
30, 732675126, 0.0710304, -0.77051526, -0.102909036, -0.6250365, -0.11140526, -0.016306052, 0.14026546, 0
31, 732691793, 0.07105149, -0.7704889, -0.10277185, -0.62508917, -0.058986746, -0.02759368, 0.10229206, 0
32, 732708460, 0.0710406, -0.7704361, -0.10261912, -0.62518066, -0.04371113, -0.02978394, 0.1367855, 0
33, 732725127, 0.071048945, -0.7703786, -0.102532014, -0.625265, -0.062708974, -0.055340856, 0.15361404, 0
34, 732741794, 0.071083665, -0.7703566, -0.102442354, -0.6253028, -0.12246409, -0.063053004, 0.17501545, 0
35, 732758461, 0.07112311, -0.7703845, -0.10236529, -0.6252766, -0.13023628, -0.08549152, 0.1502285, 0
36, 732775128, 0.071046665, -0.77042246, -0.10218102, -0.6252687, -0.11198716, -0.06577813, 0.15322876, 0
37, 732791795, 0.070915185, -0.7704433, -0.10194125, -0.62529683, -0.10436286, -0.058390357, 0.14656258, 0
38, 732808462, 0.070922144, -0.77041155, -0.10180519, -0.62535757, -0.11614165, -0.055142544, 0.1514206, 0
39, 732825129, 0.071041785, -0.77035505, -0.10179783, -0.62541467, -0.09686358, -0.046341892, 0.13137817, 0
40, 732841796, 0.07111596, -0.7703066, -0.10174719, -0.62547404, -0.06949076, -0.061002776, 0.12145233, 0
41, 732858463, 0.07116958, -0.77028334, -0.10168124, -0.62550735, -0.13800322, -0.061975617, 0.15248966, 0
42, 732875130, 0.07119681, -0.7702784, -0.101597875, -0.625524, -0.16493669, -0.07875345, 0.16572475, 0
43, 732891797, 0.07124173, -0.7702953, -0.101515174, -0.6255114, -0.1868303, -0.08572342, 0.14791012, 0
44, 732908464, 0.07130949, -0.77031195, -0.10145915, -0.6254924, -0.17041442, -0.10922704, 0.13923264, 0
45, 732925131, 0.07137369, -0.7702966, -0.10138274, -0.6255163, -0.1496983, -0.08573404, 0.12198734, 0
46, 732941798, 0.071579196, -0.77026004, -0.101474814, -0.6255228, -0.13402615, -0.08490933, 0.12717533, 0
47, 732958465, 0.07168785, -0.77023345, -0.101465546, -0.6255447, -0.11561607, -0.08011419, 0.15003014, 0
48, 732975132, 0.07178823, -0.7702088, -0.10146068, -0.62556446, -0.1275874, -0.09146234, 0.13996601, 0
49, 732991799, 0.07196585, -0.7701556, -0.10155968, -0.62559325, -0.1098374, -0.07319144, 0.16082382, 0
50, 733008466, 0.072050974, -0.7700995, -0.10153469, -0.6256566, -0.12542745, -0.09077414, 0.17192364, 0
51, 733025133, 0.07229218, -0.7700365, -0.101650864, -0.62568754, -0.16720006, -0.093838565, 0.18075466, 0
52, 733041800, 0.07235885, -0.77002394, -0.10160587, -0.6257025, -0.15334386, -0.10930739, 0.16525269, 0
53, 733058467, 0.07250781, -0.76999706, -0.1016381, -0.62571317, -0.15087767, -0.11416092, 0.13301754, 0
54, 733075134, 0.072448425, -0.769997, -0.10145982, -0.62574905, -0.16293693, -0.13404652, 0.08204937, 0
55, 733091801, 0.072371565, -0.77001065, -0.101323694, -0.62576336, -0.16141298, -0.15776254, 0.10596943, 0
56, 733108468, 0.07231924, -0.7699626, -0.101268716, -0.6258372, -0.13546292, -0.15668006, 0.18260193, 0
57, 733125135, 0.07217912, -0.76987463, -0.10110714, -0.62598765, -0.12824589, -0.14554588, 0.18846321, 0
58, 733141802, 0.072279915, -0.7697361, -0.10115891, -0.6261382, -0.12653749, -0.1381889, 0.15028, 0
59, 733158469, 0.072310515, -0.76964045, -0.10109532, -0.6262624, -0.13090661, -0.1291341, 0.104094505, 0
60, 733175136, 0.07223365, -0.76958185, -0.10093321, -0.6263695, -0.15257543, -0.14489065, 0.17995167, 0
61, 733191803, 0.07206938, -0.76947725, -0.10066857, -0.62655973, -0.14325048, -0.14979744, 0.17497349, 0
62, 733208470, 0.0721097, -0.7692601, -0.10063715, -0.6268264, -0.1162639, -0.17436625, 0.117295265, 0
63, 733225137, 0.071986884, -0.76897377, -0.100410014, -0.62722814, -0.06231525, -0.23781787, 0.05469799, 0
64, 733241804, 0.07172819, -0.7687447, -0.10014727, -0.62758064, -0.061182465, -0.26181126, 0.066675186, 0
65, 733258471, 0.071451925, -0.76860493, -0.09986946, -0.62782747, -0.15999241, -0.1567649, 0.2027359, 0
66, 733275138, 0.07127758, -0.76846826, -0.09959398, -0.6280584, -0.20486966, -0.044667836, 0.21293545, 0
67, 733291805, 0.0709328, -0.76839507, -0.0991173, -0.62826234, -0.22407757, -0.03369167, 0.16880894, 0
68, 733308472, 0.070500836, -0.768345, -0.098643936, -0.6284466, -0.29421833, -0.024626099, 0.1090107, 0
69, 733325139, 0.070011556, -0.7683176, -0.098120674, -0.62861687, -0.32713312, -0.029886197, 0.10265446, 0
70, 733341806, 0.06965817, -0.7683371, -0.09779619, -0.6286828, -0.35871068, -0.06921565, 0.12916756, 0
71, 733358473, 0.069442146, -0.7683957, -0.09767167, -0.6286542, -0.32794002, -0.081094466, 0.1764698, 0
72, 733375140, 0.06936119, -0.7683897, -0.09773844, -0.62866014, -0.2886011, -0.051788174, 0.20051289, 0
73, 733391807, 0.069404155, -0.7682906, -0.097930275, -0.6287468, -0.21280932, 0.0066771144, 0.17673588, 0
74, 733408474, 0.069503605, -0.76809883, -0.09816251, -0.6289337, -0.20201883, 0.036227986, 0.19131565, 0
75, 733425141, 0.06972367, -0.7676946, -0.09850633, -0.62934893, -0.20294762, 0.08011638, 0.27258587, 0
76, 733441808, 0.069653645, -0.76724327, -0.09863015, -0.6298876, -0.12675366, 0.10899442, 0.2918234, 0
77, 733458475, 0.06886258, -0.7665589, -0.0981766, -0.63087803, -0.10856034, 0.1135001, 0.35650444, 0
78, 733475142, 0.06749961, -0.7655956, -0.09704182, -0.63236874, -0.14824653, 0.11537482, 0.2496767, 0
79, 733491809, 0.06598713, -0.7646591, -0.09569958, -0.6338643, -0.08224946, 0.04039019, 0.15282726, 0
80, 733508476, 0.064441614, -0.76359767, -0.09427963, -0.6355134, -0.19877094, -0.12241235, 0.20178413, 0
81, 733525143, 0.06310422, -0.7622236, -0.09306578, -0.6374729, -0.27621278, -0.203015, 0.25348663, 0
82, 733541810, 0.06259578, -0.7599694, -0.09262445, -0.6402725, -0.3770653, -0.2292747, -0.030556679, 0
83, 733558477, 0.06334884, -0.7577423, -0.09332346, -0.6427319, -0.716093, -0.5305506, -0.46735477, 0
84, 733575144, 0.063155405, -0.7559248, -0.09356606, -0.64485234, -1.2167078, -0.73597765, -0.17263794, 0
85, 733591811, 0.061790533, -0.75445306, -0.09315401, -0.646765, -1.6877564, -0.7841925, -0.07626915, 0
86, 733608478, 0.06095229, -0.7532545, -0.093112364, -0.6482458, -1.287774, -0.41756922, 0.082214355, 0
87, 733625145, 0.060551126, -0.7519112, -0.09299271, -0.6498582, -0.8143746, -0.23002023, 0.18630981, 0
88, 733641812, 0.060743686, -0.7498235, -0.09312893, -0.6522286, -0.23911896, -0.09891996, 0.17761803, 0
89, 733658479, 0.06192041, -0.746573, -0.094096005, -0.6556987, 0.33987296, -0.1976807, 0.054840088, 0
90, 733675146, 0.0639732, -0.74238116, -0.0956869, -0.6600166, 0.9387251, -0.072360225, 6.9999695E-4, 0
91, 733691813, 0.06718288, -0.7378163, -0.09821539, -0.66443014, 1.1373372, 0.21799336, 0.46126842, 0
92, 733708480, 0.07127201, -0.7326345, -0.10115534, -0.6692792, 0.9145464, 0.19642185, 0.9285183, 0
93, 733725147, 0.07499561, -0.7272301, -0.10366426, -0.6743635, 0.4821744, 0.04576657, 0.9621773, 0
94, 733741814, 0.07808628, -0.72157365, -0.10560128, -0.67976654, -0.009224603, 0.14601672, 1.0129204, 0
95, 733758481, 0.081845485, -0.7138839, -0.10715878, -0.6871597, -0.82933277, 0.34721982, 1.4382992, 0
96, 733775148, 0.08725126, -0.7045444, -0.108475365, -0.6958719, -0.9693261, 0.0698003, -0.038306236, 0
97, 733791815, 0.09253125, -0.697578, -0.11075793, -0.7018231, 0.7120946, -0.24551906, -0.8516302, 0
98, 733808482, 0.09577894, -0.69281113, -0.11363492, -0.705639, 0.3017542, -0.93292886, -0.7942362, 0
99, 733825149, 0.09761318, -0.68850845, -0.11700545, -0.7090398, -2.5373955, -2.3779747, -0.18284321, 0
100, 733841816, 0.09538989, -0.68529546, -0.115752876, -0.71265155, -3.0648208, -2.4144025, 0.26480484, 0
101, 733858483, 0.09185072, -0.68277186, -0.11264176, -0.71602917, -2.304557, -1.5305849, 0.21396828, 0
102, 733875150, 0.08823832, -0.6804947, -0.10911853, -0.7191898, -1.5232468, -0.21776141, 0.2996292, 0
103, 733891817, 0.0859963, -0.67782485, -0.10644489, -0.7223766, -1.5352681, 1.0706099, 0.11188507, 0
104, 733908484, 0.085730545, -0.67491263, -0.106566526, -0.72511184, -1.1061728, 1.4460456, 0.047333717, 0
105, 733925151, 0.087077655, -0.6713274, -0.108559504, -0.72797805, -0.51407623, 0.98475784, 0.31027508, 0
106, 733941818, 0.08903248, -0.66755825, -0.11096408, -0.73083943, 0.2584377, 0.1323717, 0.3751421, 0
107, 733958485, 0.09078135, -0.66341275, -0.112656265, -0.7341328, 0.8818007, -0.8565022, 0.2805395, 0
108, 733975152, 0.09110649, -0.6594163, -0.11275513, -0.7376695, 0.86576957, -1.4665662, 0.29246998, 0
109, 733991819, 0.089484006, -0.655599, -0.11091524, -0.74153924, 0.64328164, -1.6095872, 0.09208965, 0
110, 734008486, 0.086053655, -0.6519924, -0.107292436, -0.74564683, 0.37628728, -1.314478, -0.032567978, 0
111, 734025153, 0.081234924, -0.6486779, -0.10229505, -0.7497691, 0.06325906, -0.71662855, 0.009170532, 0
112, 734041820, 0.07587327, -0.6453718, -0.09657586, -0.7539309, -0.3742612, -0.2699957, -0.08360481, 0
113, 734058487, 0.07065286, -0.64222157, -0.090952426, -0.7578176, -0.33428186, 0.0077195787, 0.028240204, 0
114, 734075154, 0.065856144, -0.6391278, -0.08601741, -0.7614327, -0.30892926, 0.3001508, -0.040275574, 0
115, 734091821, 0.06187655, -0.6362331, -0.08244704, -0.7645792, -0.1703846, 0.34097043, -0.17695904, 0
116, 734108488, 0.059423484, -0.63345957, -0.08088358, -0.7672391, -0.48766106, 0.5096532, -0.24480629, 0
117, 734125155, 0.057747133, -0.6306355, -0.0805702, -0.7697225, -0.33806586, 0.72463346, -0.061249733, 0
118, 734141822, 0.05668786, -0.6278314, -0.08091248, -0.77205396, 0.008537622, 1.0934116, -0.06847763, 0
119, 734158489, 0.056129895, -0.6251654, -0.08187422, -0.7741539, 0.16847782, 1.2149941, 0.011816978, 0
120, 734175156, 0.056186803, -0.6226446, -0.08323794, -0.77603364, 0.30403712, 1.1966144, 0.072416306, 0
121, 734191823, 0.05658596, -0.62041056, -0.08424671, -0.77768344, 0.528607, 0.8873051, 0.123018265, 0
122, 734208490, 0.05730847, -0.61862, -0.08509943, -0.77896285, 0.6504122, 0.51996654, 0.14441872, 0
123, 734225157, 0.058092117, -0.6169812, -0.0861924, -0.7800836, 0.71612895, 0.14664553, 0.113615036, 0
124, 734241824, 0.05872955, -0.6151874, -0.08762787, -0.78129184, 0.7024746, -0.18092597, 0.062314034, 0
125, 734258491, 0.058923136, -0.6129827, -0.08923368, -0.7828267, 0.6156998, -0.51749444, 0.05156994, 0
126, 734275158, 0.058531836, -0.61064273, -0.09059485, -0.78452677, 0.74940354, -0.875046, 0.0055236816, 0
127, 734291825, 0.05740099, -0.60841864, -0.091120005, -0.7862755, 0.3969041, -1.2916118, -0.2185831, 0
128, 734308492, 0.055486456, -0.6062324, -0.09052178, -0.78816843, 0.47415537, -1.2448406, -0.11191845, 0
129, 734325159, 0.052838665, -0.6041774, -0.08866948, -0.79013646, 0.42833605, -0.93918425, 0.35788822, 0
130, 734341826, 0.049771234, -0.6018049, -0.086025216, -0.79243505, -0.072189026, -0.5826426, 0.6379051, 0
131, 734358493, 0.046179913, -0.59923476, -0.08290228, -0.79492927, -0.21034977, -0.23577353, 0.5469961, 0
132, 734375160, 0.042892564, -0.59653723, -0.07993342, -0.79744244, -0.70273507, -0.10591572, 0.25587463, 0
133, 734391827, 0.039724585, -0.5932537, -0.07695278, -0.800344, 0.19612719, 0.18566374, 0.21291733, 0
134, 734408494, 0.037080847, -0.59007263, -0.07434274, -0.8030646, 0.24106683, 0.43050775, -0.09791565, 0
135, 734425161, 0.034740105, -0.58695614, -0.072274014, -0.80563796, -0.09638093, 0.4676994, 6.8187714E-4, 0
136, 734441828, 0.032422967, -0.58303833, -0.07031948, -0.80874616, 0.23980783, 0.21496594, 0.39106846, 0
137, 734458495, 0.02956104, -0.5783209, -0.06791969, -0.8124396, 0.11672143, 0.30315906, 0.65658474, 0
138, 734475162, 0.027002664, -0.57307553, -0.06587648, -0.8164041, -0.0014205872, 0.009572906, 0.20147419, 0
139, 734491829, 0.024296755, -0.56743026, -0.06344272, -0.82061434, 0.32763496, -0.27916208, 0.10686684, 0
140, 734508496, 0.021551576, -0.56138533, -0.061261058, -0.82500285, 0.21082443, -0.41557187, -0.17113972, 0
141, 734525163, 0.018250857, -0.5547503, -0.059289966, -0.82970107, 0.29309866, -0.4009904, -0.14508533, 0
142, 734541830, 0.01405493, -0.5472994, -0.057414886, -0.834847, 0.42207947, -0.3702784, 0.15802288, 0
143, 734558497, 0.009950324, -0.5398571, -0.05633353, -0.8398109, -0.27320695, -0.4203951, -0.2628479, 0
144, 734575164, 0.006208508, -0.53212357, -0.05524035, -0.8448401, -0.9204705, -0.38829112, -0.55148697, 0
145, 734591831, 0.0033023749, -0.5241538, -0.05448082, -0.8498728, -0.9827419, -0.28314424, -0.83941555, 0
146, 734608498, 4.302173E-4, -0.516732, -0.053550787, -0.8544708, -1.3953024, 0.19463493, -0.66364384, 0
147, 734625165, -0.0022779487, -0.50940967, -0.053342067, -0.85886633, -1.2259635, -0.08866492, -0.6178074, 0
148, 734641832, -0.00489095, -0.50194234, -0.053902995, -0.86320597, -1.0848504, -0.3496941, -0.3259554, 0
149, 734658499, -0.0073018093, -0.49488744, -0.055690996, -0.8671402, -1.1076347, -0.26888385, -0.22119522, 0
150, 734675166, -0.009627272, -0.48805767, -0.058315445, -0.8708082, -0.93264467, -0.9505139, 0.23727798, 0
151, 734691833, -0.012400122, -0.4813012, -0.06046101, -0.87437993, -1.0479263, -1.5757995, 0.3612175, 0
152, 734708500, -0.016038882, -0.47404203, -0.061424073, -0.8782109, -0.9136868, -2.0290174, 0.57562065, 0
153, 734725167, -0.020310061, -0.4668157, -0.061759897, -0.8819618, -0.7022762, -2.0389202, 0.22791958, 0
154, 734741834, -0.025441118, -0.45944107, -0.061725922, -0.88569564, -0.5641408, -1.4132367, 0.15965271, 0
155, 734758501, -0.031098805, -0.4517481, -0.061778557, -0.8894607, -1.0803832, -0.52033, -0.50901604, 0
156, 734775168, -0.036405515, -0.44441503, -0.062614135, -0.8928884, -0.93258595, -0.5009691, -0.65649223, 0
157, 734791835, -0.04174734, -0.4367523, -0.062813096, -0.89641464, -1.0901762, 0.071034774, -0.4808569, 0
158, 734808502, -0.04704799, -0.42892548, -0.06252261, -0.8999448, -0.9046622, 0.6350563, -0.26205158, 0
159, 734825169, -0.05222312, -0.42112723, -0.062223718, -0.9033567, -1.0497011, 0.8740779, 0.0034799576, 0
160, 734841836, -0.05731233, -0.41350985, -0.06231163, -0.9065554, -1.1111206, 1.0333585, 0.17022133, 0
161, 734858503, -0.061769374, -0.40586433, -0.06296639, -0.9096671, -0.98093176, 1.1525874, 0.19635868, 0
162, 734875170, -0.06560332, -0.39835876, -0.06406668, -0.9126348, -1.0316805, 1.1843008, 0.10149765, 0
163, 734891837, -0.06895358, -0.3911678, -0.06556731, -0.9153876, -1.0635068, 1.0062643, -0.0029687881, 0
164, 734908504, -0.071794145, -0.3847667, -0.06738844, -0.91774696, -1.0472656, 0.70778567, 0.026285172, 0
165, 734925171, -0.0740988, -0.37839234, -0.06903756, -0.9200884, -1.243362, 0.5552326, 0.29526043, 0
166, 734941838, -0.075928986, -0.37215325, -0.07083657, -0.92234457, -1.300241, 0.44828355, 0.23569584, 0
167, 734958505, -0.07740207, -0.36600506, -0.072705045, -0.9245342, -1.1562183, 0.3524933, 0.17878151, 0
168, 734975172, -0.07849627, -0.36007693, -0.07490388, -0.9265919, -0.96397, 0.21911417, 0.051553726, 0
169, 734991839, -0.07938106, -0.35407662, -0.0773306, -0.9286273, -0.6893813, 0.07134852, -0.104953766, 0
170, 735008506, -0.08023137, -0.34795648, -0.0800658, -0.9306337, -0.337241, -0.21344478, -0.3933525, 0
171, 735025173, -0.08135348, -0.34147677, -0.08278454, -0.9326963, -0.0230729, -0.5569556, -0.23492813, 0
172, 735041840, -0.08278169, -0.33466285, -0.08490316, -0.93484735, 0.11554196, -0.79179657, -0.2647848, 0
173, 735058507, -0.084283456, -0.32745862, -0.08686494, -0.93708163, -0.1449352, -0.5896363, -0.37578964, 0
174, 735075174, -0.086150534, -0.32001126, -0.08850903, -0.9393282, -0.3343021, -0.48130152, -0.45589828, 0
175, 735091841, -0.08818008, -0.31199697, -0.08988179, -0.9417026, -0.46735623, -0.4085387, -0.40211868, 0
176, 735108508, -0.09016589, -0.30352134, -0.09098024, -0.94417566, -0.3376275, -0.21604869, -0.48831463, 0
177, 735125175, -0.09202914, -0.29499152, -0.092099175, -0.946588, 0.03963262, -0.14006391, -0.45438766, 0
178, 735141842, -0.09379461, -0.28606716, -0.093235366, -0.94903934, 0.15970013, -0.0022660862, -0.5952482, 0
179, 735158509, -0.09556658, -0.27644107, -0.09399071, -0.9516373, 0.6132226, -0.15000743, -0.2798643, 0
180, 735175176, -0.09731135, -0.26667792, -0.09450584, -0.954192, 0.39077175, -0.33727837, -0.34936905, 0
181, 735191843, -0.09918077, -0.25662094, -0.094566315, -0.9567478, 0.10795856, -0.7424403, -0.10106373, 0
182, 735208510, -0.10130695, -0.24605411, -0.09334929, -0.9594168, 0.16483016, -0.2162522, -0.3874159, 0
183, 735225177, -0.10343615, -0.23511755, -0.093047336, -0.9619579, -0.17328498, 0.4207134, -0.4301939, 0
184, 735241844, -0.10630365, -0.22363093, -0.0928881, -0.96439654, -0.086286426, -0.19020958, -0.10412216, 0
185, 735258511, -0.10968796, -0.21259493, -0.09205477, -0.9665911, -0.34610268, -0.34346983, 0.10645199, 0
186, 735275178, -0.11349605, -0.20194024, -0.09079891, -0.9685529, -0.35211203, -0.98892146, 0.46527386, 0
187, 735291845, -0.1182698, -0.192598, -0.08781123, -0.9701587, 0.2976836, -2.0362322, 0.82056427, 0
188, 735308512, -0.12336383, -0.1842449, -0.08319508, -0.9715523, 0.28892937, -1.7952198, 0.8796644, 0
189, 735325179, -0.12776999, -0.17739567, -0.078306645, -0.9726634, 0.5116847, -1.7739444, 0.8317261, 0
190, 735341846, -0.13129917, -0.17194346, -0.07389846, -0.97351694, 0.33163077, -0.8471267, 0.334548, 0
191, 735358513, -0.13403055, -0.16743743, -0.07063299, -0.9741725, 0.43193656, -0.23634154, 0.27318954, 0
192, 735375180, -0.13654828, -0.16405924, -0.06739646, -0.97462666, 0.48337078, 0.023764163, 0.13970661, 0
193, 735391847, -0.13887343, -0.16127525, -0.06431786, -0.9749707, 0.5229055, -0.14462331, 0.10273075, 0
194, 735408514, -0.14064059, -0.15880392, -0.06112458, -0.97532845, 0.6577223, 0.152672, -0.04127121, 0
195, 735425181, -0.14172123, -0.15665445, -0.05901755, -0.9756493, 0.6662094, 0.274719, -0.11364746, 0
196, 735441848, -0.14264618, -0.15472664, -0.0580175, -0.9758821, 0.66384476, 0.57925785, -0.37847137, 0
197, 735458515, -0.14393258, -0.1528694, -0.05780333, -0.97599864, 0.35843182, 0.4879137, -0.4757166, 0
198, 735475182, -0.14572231, -0.15100347, -0.057845045, -0.97602105, 0.45353052, 0.021091254, -0.46704865, 0
199, 735491849, -0.14778107, -0.1490806, -0.057916477, -0.97600293, 0.5243882, -0.2953243, -0.40617466, 0
200, 735508516, -0.14985274, -0.1468496, -0.057281893, -0.97606283, 0.305169, -0.25962117, -0.07190132, 0
201, 735525183, -0.15170297, -0.14439441, -0.055949252, -0.9762204, 0.13322054, 0.08969543, -0.015363693, 0
202, 735541850, -0.15328448, -0.14201625, -0.054164577, -0.9764229, 0.43587798, 0.015451479, 0.16646194, 0
203, 735558517, -0.1545264, -0.14005543, -0.05236809, -0.9766085, 0.64848965, 0.14772648, 0.12808609, 0
204, 735575184, -0.15540211, -0.138339, -0.050880894, -0.97679263, 0.65976405, 0.12696664, 0.07985973, 0
205, 735591851, -0.15581103, -0.13692288, -0.04946982, -0.9769994, 0.55879015, 0.054294802, 0.27804852, 0
206, 735608518, -0.15570532, -0.13616215, -0.048627466, -0.9771649, 0.36151546, -0.020496348, 0.19945145, 0
207, 735625185, -0.15530835, -0.13571495, -0.04846242, -0.9772985, 0.1896199, 4.9573777E-4, -0.08457756, 0
208, 735641852, -0.15485951, -0.13588634, -0.048339352, -0.97735214, 0.22212888, -0.13423952, -0.16123009, 0
209, 735658519, -0.15441558, -0.13618869, -0.04874349, -0.9773601, 0.10258363, -0.3017135, -0.16993237, 0
210, 735675186, -0.1541327, -0.13617884, -0.04891133, -0.9773978, -0.1284924, -0.19037504, 0.06514835, 0
211, 735691853, -0.15381706, -0.1361719, -0.048728034, -0.9774576, -0.3175125, -0.0363234, 0.041244507, 0
212, 735708520, -0.15331922, -0.13618043, -0.04851748, -0.97754514, -0.3072718, -0.0032376829, -0.083667755, 0
213, 735725187, -0.1526279, -0.13620822, -0.04830117, -0.9776601, -0.10094435, 0.0044610254, -0.18758965, 0
214, 735741854, -0.15185653, -0.13623834, -0.048027664, -0.9777895, 0.059112918, -0.021375647, -0.20822048, 0
215, 735758521, -0.15101667, -0.13621959, -0.04775078, -0.9779358, 0.097769044, -0.12483493, -0.07706356, 0
216, 735775188, -0.15005465, -0.13633487, -0.0477045, -0.97807, 0.10824918, -0.1323552, -0.007484436, 0
217, 735791855, -0.14906986, -0.13657677, -0.047759417, -0.9781842, 0.065731406, -0.13791327, -0.054919243, 0
218, 735808522, -0.14816277, -0.13685171, -0.047696367, -0.9782867, 0.00745364, -0.13309567, -0.05327511, 0
219, 735825189, -0.14730258, -0.13717484, -0.047559053, -0.97837806, -0.08937258, -0.12552412, -0.027573586, 0
220, 735841856, -0.14641038, -0.13740736, -0.04739824, -0.97848725, -0.2869502, -0.05665851, -0.12011242, 0
221, 735858523, -0.14539582, -0.13751687, -0.047428854, -0.9786214, -0.32053912, -0.07976592, -0.22189426, 0
222, 735875190, -0.14437802, -0.13753653, -0.047627605, -0.9787598, -0.23734735, -0.17689559, -0.2585621, 0
223, 735891857, -0.14342155, -0.13757043, -0.04771287, -0.97889143, -0.08284791, -0.40051684, -0.12772655, 0
224, 735908524, -0.1425342, -0.13768685, -0.047687873, -0.9790058, -0.03226165, -0.38796455, 0.15293121, 0
225, 735925191, -0.14166155, -0.1375778, -0.047542453, -0.979155, -0.64762735, -0.14431147, 0.43931198, 0
226, 735941858, -0.14057785, -0.13742886, -0.046896946, -0.9793632, -0.84564316, -0.19898567, 0.1881218, 0
227, 735958525, -0.13939151, -0.13742828, -0.04627551, -0.97956234, -0.53134245, -0.31404248, -0.37927246, 0
228, 735975192, -0.13845803, -0.13727959, -0.04589743, -0.97973347, -0.30187264, -0.4787249, -0.47236347, 0
229, 735991859, -0.13793926, -0.13698216, -0.0455094, -0.9798663, -0.11822258, -0.53155935, -0.2473011, 0
230, 736008526, -0.13766667, -0.13683037, -0.045166485, -0.97994167, 0.010707374, -0.68287337, -0.050793648, 0
231, 736025193, -0.13742647, -0.13696305, -0.044870716, -0.9799704, 0.1529609, -0.81292194, -0.05525875, 0
232, 736041860, -0.13726442, -0.13732763, -0.044516515, -0.97995824, 0.19937389, -0.6807963, -0.059654236, 0
233, 736058527, -0.13717769, -0.13791978, -0.044096176, -0.97990614, 0.16104968, -0.46078995, -0.026935577, 0
234, 736075194, -0.13715523, -0.13885361, -0.043665107, -0.9797968, 0.046528608, -0.35917723, 0.027666092, 0
235, 736091861, -0.13715954, -0.13988459, -0.0433958, -0.9796615, -0.12615916, -0.19917625, -0.003663063, 0
236, 736108528, -0.13722943, -0.14074284, -0.043468297, -0.9795256, -0.31903565, -0.043859236, -0.1460104, 0
237, 736125195, -0.13739094, -0.14128163, -0.043857317, -0.979408, -0.39043984, 0.048596174, -0.070007324, 0
238, 736141862, -0.1376141, -0.14173937, -0.04426485, -0.97929233, -0.45211917, 0.055308226, 0.010501862, 0
239, 736158529, -0.13780096, -0.14224416, -0.04447911, -0.97918314, -0.47873077, -0.03379713, -0.028057098, 0
240, 736175196, -0.13787337, -0.14266212, -0.044683985, -0.9791027, -0.4553295, -0.12032206, -0.05971718, 0
241, 736191863, -0.13785784, -0.14277713, -0.044896007, -0.9790785, -0.47433823, -0.0961686, -0.032657623, 0
242, 736208530, -0.1377711, -0.14273283, -0.044960104, -0.97909415, -0.44920477, -0.1723711, -0.017605782, 0
243, 736225197, -0.13763653, -0.1426592, -0.04482415, -0.9791301, -0.36691463, -0.20317243, -0.058487892, 0
244, 736241864, -0.1374304, -0.1425715, -0.04454278, -0.97918457, -0.3027611, -0.22260897, -0.099635124, 0
245, 736258531, -0.13719204, -0.14250232, -0.04422379, -0.9792425, -0.21918012, -0.1834793, -0.08076382, 0
246, 736275198, -0.13700856, -0.14245012, -0.04397215, -0.9792871, -0.19362505, -0.13796483, -0.06089306, 0
247, 736291865, -0.13694747, -0.14239651, -0.043753482, -0.97931325, -0.15273665, -0.17362194, -0.06611347, 0
248, 736308532, -0.13696994, -0.14238629, -0.04358179, -0.9793194, -0.11536619, -0.22344239, -0.07390118, 0
249, 736325199, -0.13706852, -0.14245574, -0.0434662, -0.9793005, -0.121022336, -0.2646654, -0.079883575, 0
250, 736341866, -0.13720529, -0.14258735, -0.043395635, -0.9792654, -0.11200107, -0.31557262, -0.034044266, 0
251, 736358533, -0.13736963, -0.1427571, -0.04342522, -0.97921634, -0.07636051, -0.3440566, -0.015198708, 0
252, 736375200, -0.13755712, -0.14303204, -0.04345276, -0.9791487, -0.113695934, -0.26031095, -0.0692358, 0
253, 736391867, -0.13777861, -0.14336497, -0.04349903, -0.9790668, -0.14900663, -0.31769997, -0.098044395, 0
254, 736408534, -0.13800897, -0.14370653, -0.043432415, -0.97898704, -0.19668978, -0.37453258, -0.0412426, 0
255, 736425201, -0.13826206, -0.14401127, -0.04290428, -0.97892994, -0.3129092, -0.4059876, 0.04164982, 0
256, 736441868, -0.13848229, -0.14420648, -0.041952446, -0.97891146, -0.47569883, -0.3503227, 0.011773109, 0
257, 736458535, -0.13868028, -0.14425106, -0.04117716, -0.9789097, -0.23726071, -0.295144, -0.2080841, 0
258, 736475202, -0.13894725, -0.14411357, -0.040564165, -0.9789178, -0.18763396, -0.2697332, -0.15444946, 0
259, 736491869, -0.13933693, -0.14398721, -0.04013652, -0.97889864, -0.17992601, -0.24814844, -0.10460472, 0
260, 736508536, -0.1398291, -0.14401156, -0.03984589, -0.9788366, -0.19901936, -0.23453288, -0.07571316, 0
261, 736525203, -0.14043555, -0.14409207, -0.039668035, -0.97874516, -0.17757274, -0.2970689, -0.11727905, 0
262, 736541870, -0.14111628, -0.1441185, -0.03948389, -0.9786508, -0.13685845, -0.30270004, -0.028419495, 0
263, 736558537, -0.14179668, -0.14423315, -0.039302055, -0.978543, -0.12994237, -0.28861028, -0.0155210495, 0
264, 736575204, -0.1424911, -0.14439863, -0.039139383, -0.9784241, -0.16568482, -0.28345135, -0.10097027, 0
265, 736591871, -0.14321452, -0.14453793, -0.039109208, -0.9782992, -0.172974, -0.28089157, -0.12241459, 0
266, 736608538, -0.14396285, -0.14464779, -0.039103027, -0.9781733, -0.15899286, -0.32143584, -0.12731457, 0
267, 736625205, -0.14473616, -0.14475453, -0.03910353, -0.9780433, -0.16091733, -0.31011847, -0.09791565, 0
268, 736641872, -0.14548488, -0.14481236, -0.039091725, -0.9779242, -0.1527762, -0.33703318, -0.05929184, 0
269, 736658539, -0.14621386, -0.14486796, -0.03900755, -0.97781056, -0.14203401, -0.3399413, -0.070568085, 0
270, 736675206, -0.1469091, -0.14491591, -0.038866088, -0.9777049, -0.17220771, -0.35978076, -0.11928177, 0
271, 736691873, -0.14760774, -0.1448877, -0.038656812, -0.97761214, -0.16688526, -0.36851358, -0.146739, 0
272, 736708540, -0.14828272, -0.14481854, -0.038369432, -0.97753155, -0.14156993, -0.3782335, -0.0873785, 0
273, 736725207, -0.14895299, -0.14473869, -0.038068477, -0.97745323, -0.16092573, -0.34914184, -0.12513638, 0
274, 736741874, -0.14964236, -0.14461096, -0.037831116, -0.977376, -0.13327815, -0.3459028, -0.1474905, 0
275, 736758541, -0.15033002, -0.14440523, -0.03757273, -0.97731084, -0.07856273, -0.32380027, -0.07494545, 0
276, 736775208, -0.1509984, -0.14420037, -0.037277862, -0.9772493, -0.032474898, -0.29967707, -0.064621925, 0
277, 736791875, -0.15163638, -0.14402641, -0.03693695, -0.9771891, -0.016615042, -0.2608613, -0.043783188, 0
278, 736808542, -0.15223914, -0.14385687, -0.03659385, -0.9771334, 0.00792439, -0.20666151, -0.027828217, 0
279, 736825209, -0.15279685, -0.1437232, -0.036268204, -0.97707814, 0.014966878, -0.16168344, -0.09368706, 0
280, 736841876, -0.1533313, -0.14364728, -0.036003955, -0.9770153, 0.009582584, -0.1409307, -0.105363846, 0
281, 736858543, -0.15383449, -0.14360319, -0.03573752, -0.9769525, -8.8540465E-4, -0.14918543, -0.06583786, 0
282, 736875210, -0.15425819, -0.14359829, -0.03546122, -0.9768965, 0.040400952, -0.13421606, -0.0356102, 0
283, 736891877, -0.15461886, -0.1436087, -0.035194606, -0.9768476, 0.0705286, -0.07376063, -0.04888153, 0
284, 736908544, -0.15491937, -0.14365685, -0.03486456, -0.9768048, 0.074401386, -0.026479483, -0.038443565, 0
285, 736925211, -0.1551874, -0.14378832, -0.03455527, -0.97675383, 0.051327612, 0.0022150832, -0.028147697, 0
286, 736941878, -0.15547787, -0.1439647, -0.03430665, -0.9766905, -0.021214565, 0.04335746, -0.07702923, 0
287, 736958545, -0.15580398, -0.14417118, -0.034125872, -0.97661436, -0.071053274, 0.058947477, -0.050546646, 0
288, 736975212, -0.15614904, -0.14436513, -0.03410266, -0.9765314, -0.1493287, 0.037599977, -0.07540417, 0
289, 736991879, -0.1564698, -0.14452308, -0.034159552, -0.9764548, -0.18288763, -0.024679909, -0.061610222, 0
290, 737008546, -0.15671514, -0.14463155, -0.03430933, -0.976394, -0.18591659, -0.08852579, -0.07797718, 0
291, 737025213, -0.15692222, -0.14468129, -0.034474153, -0.97634757, -0.1984666, -0.17279711, -0.060933113, 0
292, 737041880, -0.15707609, -0.14468402, -0.03464406, -0.97631633, -0.1705399, -0.20935124, -0.059361458, 0
293, 737058547, -0.15718843, -0.1446822, -0.034852218, -0.9762912, -0.18150264, -0.25135145, -0.09354496, 0
294, 737075214, -0.1572415, -0.14465056, -0.03501539, -0.9762815, -0.1497511, -0.26564538, -0.059023857, 0
295, 737091881, -0.15720628, -0.14463265, -0.03510263, -0.97628665, -0.15359084, -0.24249871, -0.050091743, 0
296, 737108548, -0.15710175, -0.1446001, -0.035108604, -0.9763081, -0.15502745, -0.21315965, -0.057890892, 0
297, 737125215, -0.15694389, -0.14453495, -0.03508437, -0.97634405, -0.15246046, -0.19254446, -0.059934616, 0
298, 737141882, -0.1567556, -0.14444838, -0.03509318, -0.9763868, -0.13544324, -0.17461026, -0.09760666, 0
299, 737158549, -0.15652502, -0.14437234, -0.035162427, -0.97643256, -0.1218464, -0.17589661, -0.08368969, 0
300, 737175216, -0.15629193, -0.14431636, -0.03523364, -0.97647566, -0.100624196, -0.17731164, -0.07116318, 0
301, 737191883, -0.15605697, -0.14429376, -0.035285126, -0.97651464, -0.10469362, -0.19733883, -0.05679512, 0
302, 737208550, -0.155787, -0.14429171, -0.035300005, -0.97655743, -0.13802318, -0.20927964, -0.05517769, 0
303, 737225217, -0.15549733, -0.14429279, -0.035272762, -0.9766045, -0.16734429, -0.22399129, -0.07102299, 0
304, 737241884, -0.15520857, -0.1442817, -0.03523705, -0.97665334, -0.15657428, -0.250813, -0.07792854, 0
305, 737258551, -0.15494196, -0.14425266, -0.035197094, -0.9767015, -0.16334243, -0.25888085, -0.08508968, 0
306, 737275218, -0.15469709, -0.14420326, -0.035154235, -0.976749, -0.1748959, -0.24398668, -0.073898315, 0
307, 737291885, -0.15448937, -0.14414483, -0.035107695, -0.9767923, -0.2166588, -0.23115516, -0.07379341, 0
308, 737308552, -0.15431133, -0.14402553, -0.035026874, -0.97684085, -0.28324315, -0.18828759, -0.080742836, 0
309, 737325219, -0.15412828, -0.14384931, -0.034924857, -0.97689945, -0.28967848, -0.20187414, -0.12465477, 0
310, 737341886, -0.15393114, -0.14364867, -0.034818184, -0.97696376, -0.24254274, -0.26106843, -0.024959564, 0
311, 737358553, -0.15369505, -0.14342685, -0.034559514, -0.97704285, -0.23808768, -0.32394028, -0.01002121, 0
312, 737375220, -0.1534106, -0.14321397, -0.03433694, -0.9771266, -0.15231106, -0.33799356, -0.11212921, 0
313, 737391887, -0.15315977, -0.14295094, -0.034064665, -0.9772139, -0.13894181, -0.3454927, -0.13218975, 0
314, 737408554, -0.15295224, -0.14271542, -0.033810336, -0.97728974, -0.13615721, -0.32161275, -0.13781738, 0
315, 737425221, -0.15278053, -0.1425149, -0.033591013, -0.9773533, -0.13215102, -0.30958238, -0.06932068, 0
316, 737441888, -0.15258309, -0.14233927, -0.033341326, -0.9774183, -0.13273282, -0.27443916, -0.03950882, 0
317, 737458555, -0.15228894, -0.142142, -0.033017848, -0.97750396, -0.16389845, -0.22346835, -0.050657272, 0
318, 737475222, -0.15188931, -0.14184272, -0.032617047, -0.97762305, -0.18938628, -0.19288161, -0.051303864, 0
319, 737491889, -0.15145211, -0.14142878, -0.032105, -0.9777676, -0.16192338, -0.16965325, -0.09337139, 0
320, 737508556, -0.1510247, -0.1409842, -0.03155531, -0.97791594, -0.1539827, -0.18563451, -0.076215744, 0
321, 737525223, -0.15065767, -0.1405509, -0.03103346, -0.9780516, -0.16312411, -0.19117649, -0.053473473, 0
322, 737541890, -0.15035042, -0.1401903, -0.030609801, -0.978164, -0.22817835, -0.24395682, -0.06175804, 0
323, 737558557, -0.15012664, -0.13986173, -0.030247914, -0.97825664, -0.20610575, -0.3181037, -0.11001587, 0
324, 737575224, -0.1499746, -0.13956253, -0.03006452, -0.9783283, -0.16928357, -0.3654934, -0.1516304, 0
325, 737591891, -0.1499313, -0.13927992, -0.029993104, -0.9783774, -0.14433804, -0.36320227, -0.12061405, 0
326, 737608558, -0.14999162, -0.1390311, -0.029952573, -0.9784048, -0.13816582, -0.35845643, -0.07099724, 0
327, 737625225, -0.15013607, -0.1388285, -0.02992855, -0.9784122, -0.10673572, -0.29763123, -0.10162544, 0
328, 737641892, -0.15030831, -0.13863598, -0.029995183, -0.9784111, -0.08272226, -0.25771052, -0.080358505, 0
329, 737658559, -0.15045568, -0.1384809, -0.03014829, -0.9784056, -0.05575504, -0.192929, -0.043994904, 0
330, 737675226, -0.15054898, -0.13837624, -0.030372616, -0.97839916, -0.06537136, -0.18167152, -0.0779562, 0
331, 737691893, -0.15058893, -0.13830239, -0.030635934, -0.9783952, -0.05296563, -0.16868187, -0.07270622, 0
332, 737708560, -0.15058744, -0.13824861, -0.030826814, -0.9783971, -0.04164726, -0.17727153, -0.044205666, 0
333, 737725227, -0.15054777, -0.13822462, -0.030923702, -0.9784035, -0.06911937, -0.19784145, -0.06138897, 0
334, 737741894, -0.15048161, -0.13816771, -0.03099737, -0.97841936, -0.05997579, -0.22837599, -0.11003971, 0
335, 737758561, -0.15044303, -0.13805367, -0.031102875, -0.97843796, -0.07609845, -0.26698297, -0.14115429, 0
336, 737775228, -0.15040857, -0.13791482, -0.031224122, -0.9784591, -0.06686443, -0.3397644, -0.11643982, 0
337, 737791895, -0.15036577, -0.1377659, -0.031394564, -0.9784811, -0.036355544, -0.3724218, -0.08799553, 0
338, 737808562, -0.1503341, -0.13761748, -0.031594492, -0.97850055, -0.04198849, -0.36382636, -0.08225918, 0
339, 737825229, -0.1502912, -0.13745554, -0.031814866, -0.9785227, -0.06908987, -0.3573814, -0.0432415, 0
340, 737841896, -0.15021938, -0.13732405, -0.03199787, -0.9785462, -0.07478987, -0.33675513, -0.047660828, 0
341, 737858563, -0.15012631, -0.13725927, -0.032147344, -0.97856474, -0.08221073, -0.29584566, -0.06642151, 0
342, 737875230, -0.15005682, -0.13728061, -0.03230544, -0.9785671, -0.07034043, -0.26080742, -0.072297096, 0
343, 737891897, -0.1500025, -0.13735557, -0.032541323, -0.97855717, -0.110273324, -0.2518874, -0.072029114, 0
344, 737908564, -0.14999993, -0.13744508, -0.03281524, -0.97853583, -0.16923858, -0.24178173, -0.067269325, 0
345, 737925231, -0.15002313, -0.13748826, -0.033110213, -0.9785163, -0.2091422, -0.24281964, -0.04941082, 0
346, 737941898, -0.15007636, -0.1374933, -0.033352375, -0.9784992, -0.2582624, -0.23303986, -0.0643425, 0
347, 737958565, -0.1501706, -0.13747111, -0.033510007, -0.9784825, -0.25431883, -0.22264738, -0.1055069, 0
348, 737975232, -0.15033221, -0.1374146, -0.033687577, -0.9784595, -0.24208239, -0.2364389, -0.08623028, 0
349, 737991899, -0.15053283, -0.13727723, -0.033915292, -0.9784401, -0.29729, -0.22365238, -0.07726097, 0
350, 738008566, -0.15076508, -0.13709687, -0.034124102, -0.9784223, -0.33863363, -0.25421825, -0.04024887, 0
351, 738025233, -0.15102783, -0.13691725, -0.03423456, -0.9784031, -0.3134025, -0.28333065, -0.07160473, 0
352, 738041900, -0.15134613, -0.13668035, -0.034287866, -0.97838515, -0.2723393, -0.2628916, -0.124718666, 0
353, 738058567, -0.15163887, -0.13643175, -0.034344763, -0.9783725, -0.22456673, -0.27733907, -0.14710331, 0
354, 738075234, -0.15209675, -0.13614477, -0.034361556, -0.97834074, -0.19299212, -0.26527143, -0.09019375, 0
355, 738091901, -0.15242296, -0.13583693, -0.034429453, -0.97833043, -0.18711753, -0.2248481, -0.013310432, 0
356, 738108568, -0.15273057, -0.13549766, -0.0344549, -0.9783288, -0.18225646, -0.17765376, 0.0023298264, 0
357, 738125235, -0.15288745, -0.13512526, -0.03445387, -0.97835577, -0.11286382, -0.15250301, -0.026714325, 0
358, 738141902, -0.15295528, -0.13478108, -0.034449685, -0.9783928, -0.016367046, -0.15491763, -0.06752968, 0
359, 738158569, -0.15299484, -0.13453117, -0.034474898, -0.9784201, 0.07656395, -0.21513121, -0.08150673, 0
360, 738175236, -0.1529998, -0.13437317, -0.03456294, -0.97843796, 0.09157216, -0.22792055, -0.07360649, 0
361, 738191903, -0.15278554, -0.1342688, -0.03472123, -0.97848004, 0.06456716, -0.22349174, -0.037944794, 0
362, 738208570, -0.15261653, -0.1341756, -0.034803893, -0.97851634, 0.018831473, -0.21008153, -0.06517601, 0
363, 738225237, -0.15234631, -0.13409899, -0.034817882, -0.97856843, 0.0027270361, -0.1736755, -0.12640667, 0
364, 738241904, -0.1519967, -0.13400602, -0.034801707, -0.9786361, -0.026578112, -0.15357514, -0.16027641, 0
365, 738258571, -0.15159293, -0.13390562, -0.03489005, -0.9787094, -0.036893636, -0.14492543, -0.10031986, 0
366, 738275238, -0.15111235, -0.13376853, -0.035076756, -0.97879577, -0.0874929, -0.16307151, 1.02996826E-4, 0
367, 738291905, -0.15068412, -0.13367774, -0.0351886, -0.97887015, -0.090633504, -0.21181697, 3.156662E-4, 0
368, 738308572, -0.15021272, -0.133639, -0.035266615, -0.978945, -0.10112954, -0.22233191, -0.07155132, 0
369, 738325239, -0.14974755, -0.13363472, -0.035312317, -0.9790151, -0.12304183, -0.21053298, -0.12157726, 0
370, 738341906, -0.14933124, -0.1335777, -0.035437133, -0.97908217, -0.1343522, -0.2226159, -0.12544537, 0
371, 738358573, -0.14897774, -0.13354598, -0.035619512, -0.97913355, -0.13504492, -0.26904738, -0.08771229, 0
372, 738375240, -0.1486568, -0.13356258, -0.035849772, -0.9791717, -0.055864748, -0.32280776, -0.1153841, 0
373, 738391907, -0.1484799, -0.13354704, -0.03611205, -0.979191, -0.035451934, -0.32653913, -0.11075497, 0
374, 738408574, -0.14823364, -0.13354607, -0.036388133, -0.97921824, -0.075711325, -0.29253054, -0.11853027, 0
375, 738425241, -0.14812474, -0.1335447, -0.0366805, -0.979224, -0.09325374, -0.2699554, -0.13808155, 0
376, 738441908, -0.14781967, -0.1335388, -0.037062507, -0.97925663, -0.11391116, -0.26680866, -0.08460045, 0
377, 738458575, -0.14773959, -0.13351572, -0.03739034, -0.9792593, -0.15348779, -0.23576583, -0.0050678253, 0
378, 738475242, -0.14760862, -0.13352598, -0.03770756, -0.9792655, -0.19318998, -0.20459734, -0.017298698, 0
379, 738491909, -0.14748952, -0.13355903, -0.0380232, -0.97926676, -0.23565158, -0.22481807, -0.035855293, 0
380, 738508576, -0.14737108, -0.13354194, -0.038237568, -0.9792785, -0.30222383, -0.21063301, -0.053251266, 0
381, 738525243, -0.1473074, -0.13346978, -0.038324162, -0.9792946, -0.35060185, -0.20740381, -0.04537201, 0
382, 738541910, -0.14732906, -0.13332577, -0.038339894, -0.97931033, -0.37497365, -0.19899097, -0.046491623, 0
383, 738558577, -0.14722925, -0.13303961, -0.03832263, -0.979365, -0.410234, -0.18116322, -0.026240349, 0
384, 738575244, -0.14710134, -0.13263564, -0.038229425, -0.97944266, -0.5025068, -0.18704198, -0.022767067, 0
385, 738591911, -0.14692914, -0.13214432, -0.03820352, -0.9795358, -0.57368106, -0.21076903, 0.036171913, 0
386, 738608578, -0.14675353, -0.13152772, -0.038097832, -0.9796493, -0.665013, -0.26215342, 0.20393944, 0
387, 738625245, -0.14641811, -0.13066898, -0.03792113, -0.97982126, -0.6715131, -0.252817, 0.1707964, 0
388, 738641912, -0.14587344, -0.12955716, -0.037926126, -0.98004985, -0.57501596, -0.20853394, -0.05249977, 0
389, 738658579, -0.1455091, -0.12835689, -0.0378896, -0.9802633, -0.4296867, -0.18286006, -0.1923151, 0
390, 738675246, -0.14541395, -0.12719634, -0.0376453, -0.9804382, -0.20091656, -0.2415201, -0.21066856, 0
391, 738691913, -0.14546786, -0.12619697, -0.037370022, -0.9805699, -0.07673087, -0.34142387, -0.16893387, 0
392, 738708580, -0.14568345, -0.1253428, -0.037368122, -0.98064744, -0.18256402, -0.3707681, -0.16614342, 0
393, 738725247, -0.14589304, -0.12456414, -0.037690822, -0.9807032, -0.2545359, -0.4072111, -0.13260269, 0
394, 738741914, -0.14630242, -0.123820245, -0.038047478, -0.9807227, -0.29006281, -0.4672092, -0.014781952, 0
395, 738758581, -0.14663887, -0.12300447, -0.038461495, -0.9807588, -0.29082745, -0.589114, 0.10897732, 0
396, 738775248, -0.14693871, -0.122168906, -0.038885515, -0.9808017, -0.24784142, -0.6326197, 0.099793434, 0
397, 738791915, -0.14731319, -0.121436045, -0.039233364, -0.9808226, -0.12342303, -0.6756946, 0.05133915, 0
398, 738808582, -0.1478553, -0.120980695, -0.039258726, -0.9807964, -0.029307766, -0.7324025, -0.16680431, 0
399, 738825249, -0.14863862, -0.120840624, -0.039029844, -0.98070437, 0.036826305, -0.69390994, -0.45780087, 0
400, 738841916, -0.14942993, -0.120882444, -0.038638238, -0.9805946, 0.12993972, -0.4730423, -0.6289377, 0
401, 738858583, -0.14998694, -0.12107328, -0.038353905, -0.98049706, 0.112388976, -0.2589212, -0.6220331, 0
402, 738875250, -0.15050155, -0.12131739, -0.038203567, -0.9803939, 0.116577946, 0.007973252, -0.61217976, 0
403, 738891917, -0.15087835, -0.12160256, -0.038282923, -0.98029757, -0.15553907, 0.33402076, -0.5039778, 0
404, 738908584, -0.15130208, -0.12137212, -0.038835112, -0.980239, -0.3724021, 0.2518962, 0.15403461, 0
405, 738925251, -0.1516608, -0.12107899, -0.03969522, -0.9801854, -0.0634237, -0.1536854, 0.5084486, 0
406, 738941918, -0.15187164, -0.12112469, -0.04057835, -0.980111, 0.1616459, -0.40503666, 0.43222332, 0
407, 738958585, -0.15188248, -0.12128151, -0.04112001, -0.9800674, 0.28760216, -0.26062107, 0.39385033, 0
408, 738975252, -0.15163971, -0.121294245, -0.040677663, -0.98012185, 0.5162506, 0.2989977, 0.30888462, 0
409, 738991919, -0.15102115, -0.12149818, -0.040175736, -0.98021275, 0.77886206, 0.8135087, -0.15694523, 0
410, 739008586, -0.1503003, -0.12195367, -0.040638715, -0.98024786, 0.91776145, 0.868786, -0.36298275, 0
411, 739025253, -0.14945154, -0.122846924, -0.04238287, -0.98019224, 1.0229899, 0.5512756, -0.48412037, 0
412, 739041920, -0.1485685, -0.12431348, -0.045380257, -0.98000735, 1.1039599, -0.080918446, -0.693223, 0
413, 739058587, -0.14748976, -0.12654953, -0.049070142, -0.9797062, 1.2624162, -0.6983897, -0.46164036, 0
414, 739075254, -0.1463929, -0.13030045, -0.05235471, -0.979209, 1.2119994, -0.86657006, 0.18049908, 0
415, 739091921, -0.14452507, -0.13538428, -0.054477107, -0.9786808, 1.0003734, -0.8888856, 0.62987137, 0
416, 739108588, -0.14213839, -0.14057794, -0.056798406, -0.97816604, 0.5957238, -0.8667885, -0.295269, 0
417, 739125255, -0.13981843, -0.14540891, -0.05838953, -0.9777003, 0.76782286, -0.6686202, 0.24468422, 0
418, 739141922, -0.13702053, -0.15080693, -0.05936601, -0.97721994, 0.58294076, -0.3562027, 1.1962204, 0
419, 739158589, -0.13402867, -0.15629281, -0.060349014, -0.9767125, 0.57309467, 0.030734848, 0.9191675, 0
420, 739175256, -0.13069922, -0.16201594, -0.06071644, -0.9762082, 0.7239845, 0.17865732, 0.39408302, 0
421, 739191923, -0.12678842, -0.16811435, -0.061339896, -0.97565365, 1.1491096, -0.08485204, 0.006887436, 0
422, 739208590, -0.12280921, -0.17491105, -0.06278181, -0.9748756, 0.8823537, 0.35844785, -0.12771797, 0
423, 739225257, -0.11942693, -0.18216597, -0.064245164, -0.9738714, 1.0632433, 0.07526806, -0.11025047, 0
424, 739241924, -0.115907624, -0.18977484, -0.0666891, -0.97267866, 1.2244323, 1.2049999, -0.6005831, 0
425, 739258591, -0.111639604, -0.19854309, -0.07167191, -0.97107196, 0.7618228, 0.195071, -0.7861452, 0
426, 739275258, -0.10701871, -0.20792922, -0.07782332, -0.96915233, -0.016063618, -0.39831758, -0.3901205, 0
427, 739291925, -0.10281032, -0.21711865, -0.08422, -0.9670558, -0.2937626, -0.7327305, 0.046761513, 0
428, 739308592, -0.09974688, -0.22630434, -0.08947129, -0.9647964, -0.53637147, -1.2586857, 0.29039383, 0
429, 739325259, -0.0977034, -0.23562811, -0.092573434, -0.9624779, -0.52899885, -1.889945, 0.3960142, 0
430, 739341926, -0.09643792, -0.2453986, -0.092941, -0.96012574, -0.66529477, -2.1415186, 0.3910284, 0
431, 739358593, -0.09552922, -0.255501, -0.09127218, -0.9577385, -1.0032413, -1.6137662, 0.17749786, 0
432, 739375260, -0.094749056, -0.26560506, -0.08877517, -0.9552988, -1.1239026, -1.0656662, 0.078948975, 0
433, 739391927, -0.0941052, -0.27576837, -0.085930236, -0.95273936, -0.9219881, -0.8662163, -0.0614233, 0
434, 739408594, -0.093753844, -0.2858851, -0.082981125, -0.9500497, -0.8588214, -0.6075765, -0.11722469, 0
435, 739425261, -0.09352531, -0.29616666, -0.08025662, -0.9471524, -1.0977541, -0.20232692, -0.30327415, 0
436, 739441928, -0.09336489, -0.30637813, -0.07780254, -0.9441199, -1.0597057, 0.012989316, -0.22981644, 0
437, 739458595, -0.09304507, -0.31671304, -0.07589566, -0.94089085, -0.9696821, 0.2362585, -0.16748619, 0
438, 739475262, -0.09248562, -0.32726648, -0.07442895, -0.9374453, -1.0539944, 0.4615342, -0.076675415, 0
439, 739491929, -0.09185163, -0.33782092, -0.073330745, -0.93384326, -1.2573442, 0.71714246, -0.1321621, 0
440, 739508596, -0.09114713, -0.34856758, -0.07239155, -0.93002826, -1.1801816, 0.60868174, 0.045743942, 0
441, 739525263, -0.09028891, -0.35948727, -0.071128964, -0.9260441, -1.1521437, 0.6290819, 0.07726669, 0
442, 739541930, -0.089061886, -0.37058336, -0.06954187, -0.9219003, -1.2811037, 0.85522234, 0.018504143, 0
443, 739558597, -0.087241925, -0.38220486, -0.06817569, -0.9174208, -1.4219191, 0.8511283, -0.06420708, 0
444, 739575264, -0.08519259, -0.39393398, -0.06635441, -0.9127736, -1.1078048, 0.7436244, 0.22982311, 0
445, 739591931, -0.08287838, -0.40602842, -0.06460309, -0.90779895, -1.0192587, 0.25326142, 0.13337898, 0
446, 739608598, -0.08050481, -0.41800967, -0.062291548, -0.902722, -0.9661417, 0.406225, -0.0631094, 0
447, 739625265, -0.07772651, -0.4299843, -0.06013005, -0.8974725, -0.9007507, 0.46232924, -0.3598671, 0
448, 739641932, -0.074431896, -0.4423816, -0.0586011, -0.8918097, -0.75434786, 0.39939004, -0.5064249, 0
449, 739658599, -0.07087548, -0.45479834, -0.057643812, -0.8858966, -0.60663444, 0.3469709, -0.41956425, 0
450, 739675266, -0.0672888, -0.46686947, -0.05698574, -0.8799193, -0.5974261, 0.5600731, -0.41622257, 0
451, 739691933, -0.063177675, -0.47915462, -0.057017066, -0.87359524, -0.66085905, 0.4431606, -0.38293648, 0
452, 739708600, -0.05833918, -0.4915192, -0.05751533, -0.86700493, -0.59715635, 0.42372712, -0.14232254, 0
453, 739725267, -0.05280419, -0.5035943, -0.0585094, -0.86033803, -0.20912062, 0.13413487, 0.097955704, 0
454, 739741934, -0.04645407, -0.51543665, -0.060751323, -0.8535085, -0.15786667, 0.04290186, -0.29479885, 0
455, 739758601, -0.03974569, -0.5266105, -0.06363781, -0.84678936, 0.4819701, -0.27327543, -0.36885738, 0
456, 739775268, -0.033052053, -0.5373104, -0.06694998, -0.84007335, 0.7010543, -0.531031, -0.41497707, 0
457, 739791935, -0.026751803, -0.5471579, -0.07018169, -0.83365315, 0.81446296, -0.6881419, -0.33352375, 0
458, 739808602, -0.02078429, -0.5562289, -0.07361611, -0.8275014, 0.6290869, -0.6421116, -0.47914886, 0
459, 739825269, -0.015834877, -0.56487674, -0.0761101, -0.8215056, 1.2829888, -0.83163923, -0.2112236, 0
460, 739841936, -0.011360813, -0.57324255, -0.0777854, -0.8156063, 0.89247775, -0.7129375, -0.06762886, 0
461, 739858603, -0.006940063, -0.5815771, -0.07898606, -0.80961794, 0.7086148, -0.7519908, -0.29725742, 0
462, 739875270, -0.0032697502, -0.59032553, -0.079167835, -0.80326706, 0.46132544, -0.8692757, 0.029128075, 0
463, 739891937, -4.1040865E-4, -0.5988199, -0.078545555, -0.797023, 0.2266989, -0.9728769, 0.23649597, 0
464, 739908604, 0.0016694317, -0.6072975, -0.077252634, -0.79070807, 0.023429459, -0.9054411, 0.17180824, 0
465, 739925271, 0.0025766492, -0.61616546, -0.074974366, -0.78403634, -0.45365918, -0.6699068, 0.16155815, 0
466, 739941938, 0.0029209896, -0.624904, -0.07199263, -0.7773701, -0.61502916, -0.6741753, 0.0018119812, 0
467, 739958605, 0.0029897292, -0.6337265, -0.068409316, -0.77052104, -0.3831914, -0.6187766, -0.1377449, 0
468, 739975272, 0.0036279266, -0.6426178, -0.06488024, -0.7634267, -0.60730964, -0.55854434, -0.027767181, 0
469, 739991939, 0.004897725, -0.65129644, -0.062119838, -0.75626093, -0.2771712, -0.7556107, -0.223423, 0
470, 740008606, 0.0059582377, -0.6597843, -0.059537157, -0.7490693, 0.14210574, -0.89014995, -0.22880173, 0
471, 740025273, 0.006323322, -0.6678565, -0.05703916, -0.74207467, 0.38761553, -0.73878926, -0.09129906, 0
472, 740041940, 0.0060141548, -0.6752582, -0.054449175, -0.73554474, 0.37538528, -0.55202, -0.16211605, 0
473, 740058607, 0.0056407657, -0.68201554, -0.05234233, -0.7294407, 0.13715518, -0.3632877, -0.009725571, 0
474, 740075274, 0.0061685587, -0.6883074, -0.051959455, -0.7235301, -0.06601918, -0.5195768, 0.3707285, 0
475, 740091941, 0.006649088, -0.69472265, -0.052365374, -0.7173386, -0.10052009, -0.88778204, 0.69646835, 0
476, 740108608, 0.006083215, -0.70102364, -0.052042548, -0.71121097, -0.35035506, -0.903015, 0.791481, 0
477, 740125275, 0.0054272115, -0.7072431, -0.051271893, -0.70508844, -0.5289583, -0.65969807, 0.4950056, 0
478, 740141942, 0.0049781096, -0.71324515, -0.049810316, -0.6991253, -0.45091224, -0.45618334, 0.14405346, 0
479, 740158609, 0.0049270038, -0.7191114, -0.048484705, -0.6931842, -0.25302285, -0.424397, -0.06530857, 0
480, 740175276, 0.0046043093, -0.7248604, -0.047013395, -0.6872745, -0.14855912, -0.58027667, 0.14042854, 0
481, 740191943, 0.0034921784, -0.7301181, -0.045372825, -0.68180436, -0.06616134, -0.79031813, 0.39845848, 0
482, 740208610, 0.002100795, -0.73450315, -0.043718763, -0.6771928, -0.12946418, -0.7266302, 0.32082653, 0
483, 740225277, 0.0012378661, -0.7381525, -0.042394016, -0.67329997, -0.22432941, -0.4896775, 0.18111038, 0
484, 740241944, 0.0010821198, -0.74122, -0.04141682, -0.66998285, -0.037305485, -0.067369305, -0.21230125, 0
485, 740258611, 0.0015667406, -0.7441576, -0.0408391, -0.6667531, 0.22941566, 0.24327251, 0.10656643, 0
486, 740275278, 0.002343259, -0.7463165, -0.040817045, -0.66433483, 0.4183533, 0.26735982, 0.5979481, 0
487, 740291945, 0.003182847, -0.74710345, -0.041144114, -0.66342604, -0.050412927, -0.049721733, 0.5710306, 0
488, 740308612, 0.0040078536, -0.7473319, -0.041534126, -0.6631398, -0.4679753, -0.267729, 0.3379259, 0
489, 740325279, 0.0055146483, -0.7472801, -0.042364653, -0.6631348, -0.54294056, -0.40504274, 0.02338314, 0
490, 740341946, 0.0073394086, -0.74738085, -0.043198995, -0.6629498, -0.48437145, -0.4256452, -0.11281204, 0
491, 740358613, 0.008981834, -0.74767196, -0.043834377, -0.66255957, -0.63005143, -0.37215906, 0.13333797, 0
492, 740375280, 0.010565612, -0.74780756, -0.04460741, -0.6623315, -0.905229, -0.57135695, 0.28156376, 0
493, 740391947, 0.011832128, -0.7479848, -0.04511221, -0.6620757, -0.8474667, -0.66457105, 0.052959442, 0
494, 740408614, 0.012898921, -0.74831474, -0.04551656, -0.66165525, -0.51015204, -0.4664875, 0.026591301, 0
495, 740425281, 0.01397159, -0.7486813, -0.046013735, -0.6611842, -0.27886117, -0.33750182, 0.180974, 0
496, 740441948, 0.015007162, -0.7490739, -0.046586685, -0.6606765, -0.22870183, -0.24676062, 0.21221638, 0
497, 740458615, 0.016147686, -0.7494281, -0.047117673, -0.66021025, -0.30323353, -0.21943942, 0.23339939, 0
498, 740475282, 0.017559571, -0.74976265, -0.047880523, -0.659739, -0.3412333, -0.30088627, 0.014629364, 0
499, 740491949, 0.018768724, -0.75012153, -0.048643, -0.6592417, -0.22549117, -0.2749134, 0.13458824, 0
500, 740508616, 0.020033836, -0.7501314, -0.04969553, -0.6591147, -0.3429179, -0.22595866, 0.24569798, 0
501, 740525283, 0.021194188, -0.75001514, -0.050674032, -0.65913635, -0.40327743, -0.20060565, 0.11075592, 0
502, 740541950, 0.022480391, -0.74987555, -0.051860645, -0.65916044, -0.35937884, -0.15800175, -0.004278183, 0
503, 740558617, 0.023984022, -0.74965584, -0.053244587, -0.659247, -0.35415718, -0.16702825, 0.015072823, 0
504, 740575284, 0.025609951, -0.7494734, -0.05469622, -0.65927434, -0.30279496, -0.19946584, 0.09052849, 0
505, 740591951, 0.02709667, -0.7492302, -0.05603668, -0.6593787, -0.39270404, -0.26589492, 0.32633972, 0
506, 740608618, 0.028299376, -0.7489314, -0.05692609, -0.6595914, -0.56274664, -0.38852945, 0.3247795, 0
507, 740625285, 0.029341703, -0.7487221, -0.05759379, -0.6597256, -0.5451447, -0.4900769, 0.071193695, 0
508, 740641952, 0.03017066, -0.748734, -0.057992507, -0.65963966, -0.48856664, -0.59164435, -0.10311031, 0
